rt,trial_type,trial_index,time_elapsed,SubjectID,stimulus,button_pressed,PartExperiment
3385,button-response,2,24195,0hbyub76ak392shr1pn47v7yn50866sc,Strand,2,GermanArticles
3067,button-response,3,27321,0hbyub76ak392shr1pn47v7yn50866sc,Boot,2,GermanArticles
5247,button-response,4,32627,0hbyub76ak392shr1pn47v7yn50866sc,Chor,2,GermanArticles
1955,button-response,5,34645,0hbyub76ak392shr1pn47v7yn50866sc,Pfahl,0,GermanArticles
2523,button-response,6,37227,0hbyub76ak392shr1pn47v7yn50866sc,Preis,1,GermanArticles
3710,button-response,7,40995,0hbyub76ak392shr1pn47v7yn50866sc,Horn,0,GermanArticles
5241,button-response,8,46295,0hbyub76ak392shr1pn47v7yn50866sc,Berg,0,GermanArticles
4641,button-response,9,50995,0hbyub76ak392shr1pn47v7yn50866sc,Pflicht,0,GermanArticles
1776,button-response,10,52830,0hbyub76ak392shr1pn47v7yn50866sc,Nacht,1,GermanArticles
1988,button-response,11,54878,0hbyub76ak392shr1pn47v7yn50866sc,Frucht,0,GermanArticles
3224,button-response,12,58161,0hbyub76ak392shr1pn47v7yn50866sc,Beil,2,GermanArticles
3245,button-response,13,61462,0hbyub76ak392shr1pn47v7yn50866sc,Tour,0,GermanArticles
1660,button-response,14,63180,0hbyub76ak392shr1pn47v7yn50866sc,Tür,1,GermanArticles
2509,button-response,15,65745,0hbyub76ak392shr1pn47v7yn50866sc,Fleck,1,GermanArticles
3143,button-response,16,68945,0hbyub76ak392shr1pn47v7yn50866sc,Brust,1,GermanArticles
3561,button-response,17,72562,0hbyub76ak392shr1pn47v7yn50866sc,Stern,0,GermanArticles
4294,button-response,18,76912,0hbyub76ak392shr1pn47v7yn50866sc,Knie,2,GermanArticles
2159,button-response,19,79127,0hbyub76ak392shr1pn47v7yn50866sc,Licht,2,GermanArticles
1960,button-response,20,81143,0hbyub76ak392shr1pn47v7yn50866sc,Hemd,2,GermanArticles
3738,button-response,21,84938,0hbyub76ak392shr1pn47v7yn50866sc,Ohr,2,GermanArticles
1699,button-response,22,86694,0hbyub76ak392shr1pn47v7yn50866sc,Saal,1,GermanArticles
4679,button-response,23,91429,0hbyub76ak392shr1pn47v7yn50866sc,Kinn,0,GermanArticles
4879,button-response,24,96364,0hbyub76ak392shr1pn47v7yn50866sc,Bahn,0,GermanArticles
3446,button-response,25,99867,0hbyub76ak392shr1pn47v7yn50866sc,Baum,0,GermanArticles
4371,button-response,26,104298,0hbyub76ak392shr1pn47v7yn50866sc,Steak,2,GermanArticles
2609,button-response,27,106964,0hbyub76ak392shr1pn47v7yn50866sc,Sicht,0,GermanArticles
1577,button-response,28,108595,0hbyub76ak392shr1pn47v7yn50866sc,Uhr,2,GermanArticles
1393,button-response,29,110045,0hbyub76ak392shr1pn47v7yn50866sc,Kunst,1,GermanArticles
3848,button-response,30,113948,0hbyub76ak392shr1pn47v7yn50866sc,Spur,2,GermanArticles
2293,button-response,31,116297,0hbyub76ak392shr1pn47v7yn50866sc,Brot,2,GermanArticles
1895,button-response,32,118248,0hbyub76ak392shr1pn47v7yn50866sc,Hand,1,GermanArticles
4996,button-response,33,123299,0hbyub76ak392shr1pn47v7yn50866sc,Front,2,GermanArticles
2276,button-response,34,125634,0hbyub76ak392shr1pn47v7yn50866sc,Schaum,1,GermanArticles
4394,button-response,35,130083,0hbyub76ak392shr1pn47v7yn50866sc,Park,2,GermanArticles
2842,button-response,36,132981,0hbyub76ak392shr1pn47v7yn50866sc,Wald,0,GermanArticles
2477,button-response,37,135515,0hbyub76ak392shr1pn47v7yn50866sc,Glut,2,GermanArticles
1945,button-response,38,137515,0hbyub76ak392shr1pn47v7yn50866sc,Deich,0,GermanArticles
1731,button-response,39,139302,0hbyub76ak392shr1pn47v7yn50866sc,Schiff,2,GermanArticles
3459,button-response,40,142816,0hbyub76ak392shr1pn47v7yn50866sc,Quiz,0,GermanArticles
1710,button-response,41,144581,0hbyub76ak392shr1pn47v7yn50866sc,Lohn,2,GermanArticles
1344,button-response,42,145981,0hbyub76ak392shr1pn47v7yn50866sc,Platz,1,GermanArticles
1539,button-response,43,147577,0hbyub76ak392shr1pn47v7yn50866sc,Mund,0,GermanArticles
2849,button-response,44,150482,0hbyub76ak392shr1pn47v7yn50866sc,Wurst,0,GermanArticles
1344,button-response,45,151883,0hbyub76ak392shr1pn47v7yn50866sc,Stadt,1,GermanArticles
5125,button-response,47,180368,0hbyub76ak392shr1pn47v7yn50866sc,ne poort,1,DutchArticlesUsual
2861,button-response,48,183284,0hbyub76ak392shr1pn47v7yn50866sc,het maand,2,DutchArticlesUsual
4514,button-response,49,187854,0hbyub76ak392shr1pn47v7yn50866sc,het huis,0,DutchArticlesUsual
1492,button-response,50,189401,0hbyub76ak392shr1pn47v7yn50866sc,de naam,0,DutchArticlesUsual
3462,button-response,51,192919,0hbyub76ak392shr1pn47v7yn50866sc,het stuk,0,DutchArticlesUsual
1976,button-response,52,194951,0hbyub76ak392shr1pn47v7yn50866sc,ne kant,1,DutchArticlesUsual
3011,button-response,53,198019,0hbyub76ak392shr1pn47v7yn50866sc,de koek,0,DutchArticlesUsual
1360,button-response,54,199434,0hbyub76ak392shr1pn47v7yn50866sc,de pijn,0,DutchArticlesUsual
1427,button-response,55,200917,0hbyub76ak392shr1pn47v7yn50866sc,ne stad,1,DutchArticlesUsual
2362,button-response,56,203336,0hbyub76ak392shr1pn47v7yn50866sc,de ding,2,DutchArticlesUsual
3574,button-response,57,206966,0hbyub76ak392shr1pn47v7yn50866sc,de hart,2,DutchArticlesUsual
1745,button-response,58,208767,0hbyub76ak392shr1pn47v7yn50866sc,het woord,0,DutchArticlesUsual
1460,button-response,59,210284,0hbyub76ak392shr1pn47v7yn50866sc,ne plicht,1,DutchArticlesUsual
1279,button-response,60,211619,0hbyub76ak392shr1pn47v7yn50866sc,ne stap,1,DutchArticlesUsual
1645,button-response,61,213319,0hbyub76ak392shr1pn47v7yn50866sc,het jaar,0,DutchArticlesUsual
2263,button-response,62,215636,0hbyub76ak392shr1pn47v7yn50866sc,de werk,2,DutchArticlesUsual
1496,button-response,63,217186,0hbyub76ak392shr1pn47v7yn50866sc,ne zaal,1,DutchArticlesUsual
1106,button-response,64,218349,0hbyub76ak392shr1pn47v7yn50866sc,ne zaak,1,DutchArticlesUsual
1214,button-response,65,219619,0hbyub76ak392shr1pn47v7yn50866sc,ne knie,1,DutchArticlesUsual
2447,button-response,66,222121,0hbyub76ak392shr1pn47v7yn50866sc,het fiets,2,DutchArticlesUsual
1592,button-response,67,223769,0hbyub76ak392shr1pn47v7yn50866sc,nen bijl,1,DutchArticlesUsual
1711,button-response,68,225536,0hbyub76ak392shr1pn47v7yn50866sc,de speld,0,DutchArticlesUsual
4147,button-response,69,229738,0hbyub76ak392shr1pn47v7yn50866sc,het stoel,2,DutchArticlesUsual
1577,button-response,70,231370,0hbyub76ak392shr1pn47v7yn50866sc,ne mand,1,DutchArticlesUsual
1124,button-response,71,232550,0hbyub76ak392shr1pn47v7yn50866sc,ne vrucht,1,DutchArticlesUsual
2731,button-response,72,235337,0hbyub76ak392shr1pn47v7yn50866sc,de trein,0,DutchArticlesUsual
2655,button-response,73,238047,0hbyub76ak392shr1pn47v7yn50866sc,het veld,0,DutchArticlesUsual
2832,button-response,74,240934,0hbyub76ak392shr1pn47v7yn50866sc,de beeld,2,DutchArticlesUsual
1331,button-response,75,242322,0hbyub76ak392shr1pn47v7yn50866sc,ne geur,1,DutchArticlesUsual
1842,button-response,76,244219,0hbyub76ak392shr1pn47v7yn50866sc,de vuur,2,DutchArticlesUsual
1327,button-response,77,245602,0hbyub76ak392shr1pn47v7yn50866sc,ne gloed,1,DutchArticlesUsual
2400,button-response,78,248057,0hbyub76ak392shr1pn47v7yn50866sc,het film,2,DutchArticlesUsual
4495,button-response,79,252607,0hbyub76ak392shr1pn47v7yn50866sc,het rol,2,DutchArticlesUsual
1292,button-response,80,253954,0hbyub76ak392shr1pn47v7yn50866sc,ne kin,1,DutchArticlesUsual
1505,button-response,82,261334,0hbyub76ak392shr1pn47v7yn50866sc,ne vrucht,1,DutchArticlesOwnUse
1049,button-response,83,262437,0hbyub76ak392shr1pn47v7yn50866sc,ne stap,1,DutchArticlesOwnUse
976,button-response,84,263469,0hbyub76ak392shr1pn47v7yn50866sc,ne gloed,1,DutchArticlesOwnUse
961,button-response,85,264487,0hbyub76ak392shr1pn47v7yn50866sc,ne plicht,1,DutchArticlesOwnUse
937,button-response,86,265478,0hbyub76ak392shr1pn47v7yn50866sc,ne mand,1,DutchArticlesOwnUse
864,button-response,87,266399,0hbyub76ak392shr1pn47v7yn50866sc,nen bijl,1,DutchArticlesOwnUse
878,button-response,88,267332,0hbyub76ak392shr1pn47v7yn50866sc,ne zaak,1,DutchArticlesOwnUse
847,button-response,89,268235,0hbyub76ak392shr1pn47v7yn50866sc,ne poort,1,DutchArticlesOwnUse
828,button-response,90,269119,0hbyub76ak392shr1pn47v7yn50866sc,ne kant,1,DutchArticlesOwnUse
882,button-response,91,270056,0hbyub76ak392shr1pn47v7yn50866sc,ne zaal,1,DutchArticlesOwnUse
857,button-response,92,270968,0hbyub76ak392shr1pn47v7yn50866sc,ne stad,1,DutchArticlesOwnUse
833,button-response,93,271857,0hbyub76ak392shr1pn47v7yn50866sc,ne knie,1,DutchArticlesOwnUse
905,button-response,94,272816,0hbyub76ak392shr1pn47v7yn50866sc,ne kin,1,DutchArticlesOwnUse
913,button-response,95,273785,0hbyub76ak392shr1pn47v7yn50866sc,ne geur,1,DutchArticlesOwnUse
3180,button-response,2,10300,0oq70qgrdzv2e1fkonw5284hl652fsjx,Strand,2,GermanArticles
1680,button-response,3,12048,0oq70qgrdzv2e1fkonw5284hl652fsjx,Schiff,0,GermanArticles
3703,button-response,4,15817,0oq70qgrdzv2e1fkonw5284hl652fsjx,Quiz,2,GermanArticles
1468,button-response,5,17346,0oq70qgrdzv2e1fkonw5284hl652fsjx,Baum,0,GermanArticles
1960,button-response,6,19368,0oq70qgrdzv2e1fkonw5284hl652fsjx,Kunst,1,GermanArticles
1469,button-response,7,20894,0oq70qgrdzv2e1fkonw5284hl652fsjx,Boot,2,GermanArticles
1669,button-response,8,22622,0oq70qgrdzv2e1fkonw5284hl652fsjx,Park,0,GermanArticles
1690,button-response,9,24376,0oq70qgrdzv2e1fkonw5284hl652fsjx,Tür,1,GermanArticles
1581,button-response,10,26018,0oq70qgrdzv2e1fkonw5284hl652fsjx,Lohn,2,GermanArticles
2450,button-response,11,28530,0oq70qgrdzv2e1fkonw5284hl652fsjx,Steak,0,GermanArticles
8901,button-response,12,37495,0oq70qgrdzv2e1fkonw5284hl652fsjx,Schaum,2,GermanArticles
2105,button-response,13,39675,0oq70qgrdzv2e1fkonw5284hl652fsjx,Hemd,2,GermanArticles
2229,button-response,14,41967,0oq70qgrdzv2e1fkonw5284hl652fsjx,Uhr,2,GermanArticles
3315,button-response,15,45348,0oq70qgrdzv2e1fkonw5284hl652fsjx,Fleck,0,GermanArticles
1639,button-response,16,47049,0oq70qgrdzv2e1fkonw5284hl652fsjx,Brust,1,GermanArticles
1998,button-response,17,49110,0oq70qgrdzv2e1fkonw5284hl652fsjx,Berg,0,GermanArticles
1873,button-response,18,51049,0oq70qgrdzv2e1fkonw5284hl652fsjx,Chor,2,GermanArticles
1621,button-response,19,52734,0oq70qgrdzv2e1fkonw5284hl652fsjx,Spur,1,GermanArticles
1801,button-response,20,54599,0oq70qgrdzv2e1fkonw5284hl652fsjx,Pflicht,0,GermanArticles
1851,button-response,21,56513,0oq70qgrdzv2e1fkonw5284hl652fsjx,Bahn,2,GermanArticles
2548,button-response,22,59129,0oq70qgrdzv2e1fkonw5284hl652fsjx,Beil,0,GermanArticles
2031,button-response,23,61224,0oq70qgrdzv2e1fkonw5284hl652fsjx,Pfahl,1,GermanArticles
1571,button-response,24,62858,0oq70qgrdzv2e1fkonw5284hl652fsjx,Front,2,GermanArticles
2073,button-response,25,64996,0oq70qgrdzv2e1fkonw5284hl652fsjx,Stern,0,GermanArticles
9326,button-response,26,74384,0oq70qgrdzv2e1fkonw5284hl652fsjx,Wurst,0,GermanArticles
2445,button-response,27,76894,0oq70qgrdzv2e1fkonw5284hl652fsjx,Kinn,2,GermanArticles
6450,button-response,28,83407,0oq70qgrdzv2e1fkonw5284hl652fsjx,Stadt,0,GermanArticles
2191,button-response,29,85661,0oq70qgrdzv2e1fkonw5284hl652fsjx,Saal,1,GermanArticles
2286,button-response,30,88010,0oq70qgrdzv2e1fkonw5284hl652fsjx,Knie,2,GermanArticles
1791,button-response,31,89863,0oq70qgrdzv2e1fkonw5284hl652fsjx,Sicht,0,GermanArticles
2259,button-response,32,92188,0oq70qgrdzv2e1fkonw5284hl652fsjx,Frucht,1,GermanArticles
1668,button-response,33,93920,0oq70qgrdzv2e1fkonw5284hl652fsjx,Deich,0,GermanArticles
1739,button-response,34,95725,0oq70qgrdzv2e1fkonw5284hl652fsjx,Nacht,1,GermanArticles
2756,button-response,35,98543,0oq70qgrdzv2e1fkonw5284hl652fsjx,Licht,2,GermanArticles
1531,button-response,36,100136,0oq70qgrdzv2e1fkonw5284hl652fsjx,Horn,0,GermanArticles
3061,button-response,37,103272,0oq70qgrdzv2e1fkonw5284hl652fsjx,Brot,2,GermanArticles
2772,button-response,38,106107,0oq70qgrdzv2e1fkonw5284hl652fsjx,Platz,0,GermanArticles
5818,button-response,39,111987,0oq70qgrdzv2e1fkonw5284hl652fsjx,Wald,2,GermanArticles
6923,button-response,40,118973,0oq70qgrdzv2e1fkonw5284hl652fsjx,Hand,2,GermanArticles
4936,button-response,41,123971,0oq70qgrdzv2e1fkonw5284hl652fsjx,Ohr,0,GermanArticles
3559,button-response,42,127589,0oq70qgrdzv2e1fkonw5284hl652fsjx,Tour,2,GermanArticles
2677,button-response,43,130327,0oq70qgrdzv2e1fkonw5284hl652fsjx,Glut,1,GermanArticles
2267,button-response,44,132660,0oq70qgrdzv2e1fkonw5284hl652fsjx,Mund,0,GermanArticles
3308,button-response,45,136031,0oq70qgrdzv2e1fkonw5284hl652fsjx,Preis,2,GermanArticles
2244,button-response,47,146471,0oq70qgrdzv2e1fkonw5284hl652fsjx,het woord,0,DutchArticlesUsual
2548,button-response,48,149083,0oq70qgrdzv2e1fkonw5284hl652fsjx,ne gloed,1,DutchArticlesUsual
6504,button-response,49,155649,0oq70qgrdzv2e1fkonw5284hl652fsjx,ne vrucht,1,DutchArticlesUsual
8190,button-response,50,163900,0oq70qgrdzv2e1fkonw5284hl652fsjx,nen bijl,2,DutchArticlesUsual
1658,button-response,51,165619,0oq70qgrdzv2e1fkonw5284hl652fsjx,ne geur,1,DutchArticlesUsual
2312,button-response,52,167996,0oq70qgrdzv2e1fkonw5284hl652fsjx,de naam,0,DutchArticlesUsual
3055,button-response,53,171114,0oq70qgrdzv2e1fkonw5284hl652fsjx,ne plicht,1,DutchArticlesUsual
2824,button-response,54,174003,0oq70qgrdzv2e1fkonw5284hl652fsjx,ne stad,1,DutchArticlesUsual
2479,button-response,55,176543,0oq70qgrdzv2e1fkonw5284hl652fsjx,ne kant,1,DutchArticlesUsual
3390,button-response,56,180002,0oq70qgrdzv2e1fkonw5284hl652fsjx,het stoel,2,DutchArticlesUsual
2728,button-response,57,182791,0oq70qgrdzv2e1fkonw5284hl652fsjx,de trein,0,DutchArticlesUsual
1468,button-response,58,184322,0oq70qgrdzv2e1fkonw5284hl652fsjx,ne mand,1,DutchArticlesUsual
7614,button-response,59,191998,0oq70qgrdzv2e1fkonw5284hl652fsjx,de pijn,0,DutchArticlesUsual
2082,button-response,60,194141,0oq70qgrdzv2e1fkonw5284hl652fsjx,de vuur,2,DutchArticlesUsual
1665,button-response,61,195867,0oq70qgrdzv2e1fkonw5284hl652fsjx,het jaar,0,DutchArticlesUsual
1893,button-response,62,197822,0oq70qgrdzv2e1fkonw5284hl652fsjx,het fiets,2,DutchArticlesUsual
2066,button-response,63,199949,0oq70qgrdzv2e1fkonw5284hl652fsjx,het rol,2,DutchArticlesUsual
1767,button-response,64,201778,0oq70qgrdzv2e1fkonw5284hl652fsjx,het veld,0,DutchArticlesUsual
2588,button-response,65,204433,0oq70qgrdzv2e1fkonw5284hl652fsjx,de speld,0,DutchArticlesUsual
1640,button-response,66,206145,0oq70qgrdzv2e1fkonw5284hl652fsjx,de ding,2,DutchArticlesUsual
2262,button-response,67,208467,0oq70qgrdzv2e1fkonw5284hl652fsjx,de beeld,2,DutchArticlesUsual
2022,button-response,68,210552,0oq70qgrdzv2e1fkonw5284hl652fsjx,het maand,2,DutchArticlesUsual
1922,button-response,69,212536,0oq70qgrdzv2e1fkonw5284hl652fsjx,ne kin,1,DutchArticlesUsual
1853,button-response,70,214450,0oq70qgrdzv2e1fkonw5284hl652fsjx,ne stap,1,DutchArticlesUsual
1794,button-response,71,216305,0oq70qgrdzv2e1fkonw5284hl652fsjx,de werk,2,DutchArticlesUsual
2386,button-response,72,218750,0oq70qgrdzv2e1fkonw5284hl652fsjx,ne knie,1,DutchArticlesUsual
2276,button-response,73,221087,0oq70qgrdzv2e1fkonw5284hl652fsjx,de hart,2,DutchArticlesUsual
2087,button-response,74,223235,0oq70qgrdzv2e1fkonw5284hl652fsjx,ne poort,1,DutchArticlesUsual
1794,button-response,75,225091,0oq70qgrdzv2e1fkonw5284hl652fsjx,het huis,0,DutchArticlesUsual
7267,button-response,76,232421,0oq70qgrdzv2e1fkonw5284hl652fsjx,het stuk,0,DutchArticlesUsual
1799,button-response,77,234282,0oq70qgrdzv2e1fkonw5284hl652fsjx,ne zaal,1,DutchArticlesUsual
899,button-response,78,235242,0oq70qgrdzv2e1fkonw5284hl652fsjx,ne zaak,1,DutchArticlesUsual
2520,button-response,79,237823,0oq70qgrdzv2e1fkonw5284hl652fsjx,het film,2,DutchArticlesUsual
3405,button-response,80,241289,0oq70qgrdzv2e1fkonw5284hl652fsjx,de koek,0,DutchArticlesUsual
2035,button-response,82,252369,0oq70qgrdzv2e1fkonw5284hl652fsjx,nen bijl,1,DutchArticlesOwnUse
1557,button-response,83,253987,0oq70qgrdzv2e1fkonw5284hl652fsjx,ne stad,1,DutchArticlesOwnUse
1031,button-response,84,255079,0oq70qgrdzv2e1fkonw5284hl652fsjx,ne poort,1,DutchArticlesOwnUse
886,button-response,85,256024,0oq70qgrdzv2e1fkonw5284hl652fsjx,ne kant,1,DutchArticlesOwnUse
801,button-response,86,256884,0oq70qgrdzv2e1fkonw5284hl652fsjx,ne zaal,1,DutchArticlesOwnUse
817,button-response,87,257760,0oq70qgrdzv2e1fkonw5284hl652fsjx,ne mand,1,DutchArticlesOwnUse
774,button-response,88,258594,0oq70qgrdzv2e1fkonw5284hl652fsjx,ne zaak,1,DutchArticlesOwnUse
783,button-response,89,259436,0oq70qgrdzv2e1fkonw5284hl652fsjx,ne kin,1,DutchArticlesOwnUse
861,button-response,90,260358,0oq70qgrdzv2e1fkonw5284hl652fsjx,ne plicht,1,DutchArticlesOwnUse
811,button-response,91,261229,0oq70qgrdzv2e1fkonw5284hl652fsjx,ne gloed,1,DutchArticlesOwnUse
753,button-response,92,262043,0oq70qgrdzv2e1fkonw5284hl652fsjx,ne knie,1,DutchArticlesOwnUse
768,button-response,93,262872,0oq70qgrdzv2e1fkonw5284hl652fsjx,ne vrucht,1,DutchArticlesOwnUse
759,button-response,94,263690,0oq70qgrdzv2e1fkonw5284hl652fsjx,ne geur,1,DutchArticlesOwnUse
905,button-response,95,264654,0oq70qgrdzv2e1fkonw5284hl652fsjx,ne stap,1,DutchArticlesOwnUse
6123,button-response,2,108464,0r2g5ss083g6ath2hnerzhz6t70zadq4,Uhr,0,GermanArticles
6148,button-response,3,114671,0r2g5ss083g6ath2hnerzhz6t70zadq4,Fleck,2,GermanArticles
16463,button-response,4,131190,0r2g5ss083g6ath2hnerzhz6t70zadq4,Mund,1,GermanArticles
2107,button-response,5,133356,0r2g5ss083g6ath2hnerzhz6t70zadq4,Hand,0,GermanArticles
2619,button-response,6,136034,0r2g5ss083g6ath2hnerzhz6t70zadq4,Bahn,1,GermanArticles
5094,button-response,7,141186,0r2g5ss083g6ath2hnerzhz6t70zadq4,Horn,0,GermanArticles
5701,button-response,8,146946,0r2g5ss083g6ath2hnerzhz6t70zadq4,Pfahl,0,GermanArticles
6776,button-response,9,153781,0r2g5ss083g6ath2hnerzhz6t70zadq4,Steak,1,GermanArticles
2253,button-response,10,156090,0r2g5ss083g6ath2hnerzhz6t70zadq4,Wald,2,GermanArticles
6615,button-response,11,162764,0r2g5ss083g6ath2hnerzhz6t70zadq4,Lohn,2,GermanArticles
3542,button-response,12,166361,0r2g5ss083g6ath2hnerzhz6t70zadq4,Brust,1,GermanArticles
2825,button-response,13,169240,0r2g5ss083g6ath2hnerzhz6t70zadq4,Spur,2,GermanArticles
2369,button-response,14,171666,0r2g5ss083g6ath2hnerzhz6t70zadq4,Sicht,0,GermanArticles
3889,button-response,15,175613,0r2g5ss083g6ath2hnerzhz6t70zadq4,Deich,1,GermanArticles
1617,button-response,16,177288,0r2g5ss083g6ath2hnerzhz6t70zadq4,Licht,0,GermanArticles
1553,button-response,17,178895,0r2g5ss083g6ath2hnerzhz6t70zadq4,Kunst,1,GermanArticles
3496,button-response,18,182445,0r2g5ss083g6ath2hnerzhz6t70zadq4,Berg,0,GermanArticles
1533,button-response,19,184031,0r2g5ss083g6ath2hnerzhz6t70zadq4,Kinn,0,GermanArticles
1705,button-response,20,185794,0r2g5ss083g6ath2hnerzhz6t70zadq4,Hemd,0,GermanArticles
2960,button-response,21,188812,0r2g5ss083g6ath2hnerzhz6t70zadq4,Baum,1,GermanArticles
6178,button-response,22,195049,0r2g5ss083g6ath2hnerzhz6t70zadq4,Tür,0,GermanArticles
2900,button-response,23,198007,0r2g5ss083g6ath2hnerzhz6t70zadq4,Stadt,1,GermanArticles
6535,button-response,24,204599,0r2g5ss083g6ath2hnerzhz6t70zadq4,Wurst,2,GermanArticles
2415,button-response,25,207072,0r2g5ss083g6ath2hnerzhz6t70zadq4,Nacht,0,GermanArticles
1978,button-response,26,209106,0r2g5ss083g6ath2hnerzhz6t70zadq4,Chor,0,GermanArticles
5848,button-response,27,215009,0r2g5ss083g6ath2hnerzhz6t70zadq4,Platz,2,GermanArticles
3786,button-response,28,218853,0r2g5ss083g6ath2hnerzhz6t70zadq4,Schaum,2,GermanArticles
2680,button-response,29,221590,0r2g5ss083g6ath2hnerzhz6t70zadq4,Brot,0,GermanArticles
4501,button-response,30,226149,0r2g5ss083g6ath2hnerzhz6t70zadq4,Pflicht,0,GermanArticles
2965,button-response,31,229170,0r2g5ss083g6ath2hnerzhz6t70zadq4,Tour,2,GermanArticles
2840,button-response,32,232068,0r2g5ss083g6ath2hnerzhz6t70zadq4,Stern,1,GermanArticles
2525,button-response,33,234652,0r2g5ss083g6ath2hnerzhz6t70zadq4,Knie,0,GermanArticles
4962,button-response,34,239673,0r2g5ss083g6ath2hnerzhz6t70zadq4,Glut,2,GermanArticles
3719,button-response,35,243446,0r2g5ss083g6ath2hnerzhz6t70zadq4,Saal,0,GermanArticles
3752,button-response,36,247254,0r2g5ss083g6ath2hnerzhz6t70zadq4,Front,0,GermanArticles
1466,button-response,37,248775,0r2g5ss083g6ath2hnerzhz6t70zadq4,Beil,0,GermanArticles
2627,button-response,38,251460,0r2g5ss083g6ath2hnerzhz6t70zadq4,Preis,2,GermanArticles
3072,button-response,39,254591,0r2g5ss083g6ath2hnerzhz6t70zadq4,Park,0,GermanArticles
1681,button-response,40,256326,0r2g5ss083g6ath2hnerzhz6t70zadq4,Strand,1,GermanArticles
2495,button-response,41,258879,0r2g5ss083g6ath2hnerzhz6t70zadq4,Frucht,0,GermanArticles
2142,button-response,42,261079,0r2g5ss083g6ath2hnerzhz6t70zadq4,Boot,1,GermanArticles
1653,button-response,43,262787,0r2g5ss083g6ath2hnerzhz6t70zadq4,Quiz,0,GermanArticles
6029,button-response,44,268873,0r2g5ss083g6ath2hnerzhz6t70zadq4,Ohr,0,GermanArticles
4477,button-response,45,273406,0r2g5ss083g6ath2hnerzhz6t70zadq4,Schiff,1,GermanArticles
22509,button-response,47,342132,0r2g5ss083g6ath2hnerzhz6t70zadq4,ne mand,0,DutchArticlesUsual
6903,button-response,48,349091,0r2g5ss083g6ath2hnerzhz6t70zadq4,het rol,2,DutchArticlesUsual
4809,button-response,49,353958,0r2g5ss083g6ath2hnerzhz6t70zadq4,de hart,2,DutchArticlesUsual
6066,button-response,50,360082,0r2g5ss083g6ath2hnerzhz6t70zadq4,het fiets,2,DutchArticlesUsual
3086,button-response,51,363226,0r2g5ss083g6ath2hnerzhz6t70zadq4,het jaar,0,DutchArticlesUsual
2352,button-response,52,365634,0r2g5ss083g6ath2hnerzhz6t70zadq4,de trein,0,DutchArticlesUsual
6630,button-response,53,372322,0r2g5ss083g6ath2hnerzhz6t70zadq4,ne gloed,0,DutchArticlesUsual
21988,button-response,54,394367,0r2g5ss083g6ath2hnerzhz6t70zadq4,de koek,1,DutchArticlesUsual
4363,button-response,55,398787,0r2g5ss083g6ath2hnerzhz6t70zadq4,het film,2,DutchArticlesUsual
2563,button-response,56,401404,0r2g5ss083g6ath2hnerzhz6t70zadq4,het stuk,0,DutchArticlesUsual
2460,button-response,57,403922,0r2g5ss083g6ath2hnerzhz6t70zadq4,de vuur,2,DutchArticlesUsual
3783,button-response,58,407763,0r2g5ss083g6ath2hnerzhz6t70zadq4,ne stap,0,DutchArticlesUsual
1771,button-response,59,409592,0r2g5ss083g6ath2hnerzhz6t70zadq4,het maand,2,DutchArticlesUsual
11501,button-response,60,421151,0r2g5ss083g6ath2hnerzhz6t70zadq4,ne kin,1,DutchArticlesUsual
2137,button-response,61,423343,0r2g5ss083g6ath2hnerzhz6t70zadq4,het stoel,2,DutchArticlesUsual
6164,button-response,62,429565,0r2g5ss083g6ath2hnerzhz6t70zadq4,ne knie,0,DutchArticlesUsual
2534,button-response,63,432157,0r2g5ss083g6ath2hnerzhz6t70zadq4,de beeld,2,DutchArticlesUsual
1929,button-response,64,434144,0r2g5ss083g6ath2hnerzhz6t70zadq4,het veld,0,DutchArticlesUsual
2030,button-response,65,436232,0r2g5ss083g6ath2hnerzhz6t70zadq4,de naam,0,DutchArticlesUsual
5686,button-response,66,441976,0r2g5ss083g6ath2hnerzhz6t70zadq4,de werk,2,DutchArticlesUsual
1939,button-response,67,443973,0r2g5ss083g6ath2hnerzhz6t70zadq4,de ding,2,DutchArticlesUsual
1450,button-response,68,445481,0r2g5ss083g6ath2hnerzhz6t70zadq4,het huis,0,DutchArticlesUsual
1376,button-response,69,446916,0r2g5ss083g6ath2hnerzhz6t70zadq4,het woord,0,DutchArticlesUsual
6831,button-response,70,453805,0r2g5ss083g6ath2hnerzhz6t70zadq4,de speld,2,DutchArticlesUsual
2323,button-response,71,456185,0r2g5ss083g6ath2hnerzhz6t70zadq4,nen bijl,1,DutchArticlesUsual
1854,button-response,72,458097,0r2g5ss083g6ath2hnerzhz6t70zadq4,ne stad,0,DutchArticlesUsual
8716,button-response,73,466869,0r2g5ss083g6ath2hnerzhz6t70zadq4,ne plicht,2,DutchArticlesUsual
1652,button-response,74,468577,0r2g5ss083g6ath2hnerzhz6t70zadq4,ne zaal,2,DutchArticlesUsual
1934,button-response,75,470567,0r2g5ss083g6ath2hnerzhz6t70zadq4,ne poort,2,DutchArticlesUsual
1666,button-response,76,472291,0r2g5ss083g6ath2hnerzhz6t70zadq4,ne geur,1,DutchArticlesUsual
4423,button-response,77,476769,0r2g5ss083g6ath2hnerzhz6t70zadq4,ne zaak,2,DutchArticlesUsual
1689,button-response,78,478513,0r2g5ss083g6ath2hnerzhz6t70zadq4,de pijn,0,DutchArticlesUsual
1797,button-response,79,480364,0r2g5ss083g6ath2hnerzhz6t70zadq4,ne kant,1,DutchArticlesUsual
6436,button-response,80,486858,0r2g5ss083g6ath2hnerzhz6t70zadq4,ne vrucht,2,DutchArticlesUsual
1807,button-response,82,498508,0r2g5ss083g6ath2hnerzhz6t70zadq4,ne gloed,0,DutchArticlesOwnUse
2206,button-response,83,500772,0r2g5ss083g6ath2hnerzhz6t70zadq4,ne knie,0,DutchArticlesOwnUse
3925,button-response,84,504752,0r2g5ss083g6ath2hnerzhz6t70zadq4,nen bijl,1,DutchArticlesOwnUse
7504,button-response,85,512313,0r2g5ss083g6ath2hnerzhz6t70zadq4,ne mand,1,DutchArticlesOwnUse
5212,button-response,86,517581,0r2g5ss083g6ath2hnerzhz6t70zadq4,ne vrucht,1,DutchArticlesOwnUse
1613,button-response,87,519247,0r2g5ss083g6ath2hnerzhz6t70zadq4,ne zaal,1,DutchArticlesOwnUse
1175,button-response,88,520479,0r2g5ss083g6ath2hnerzhz6t70zadq4,ne zaak,1,DutchArticlesOwnUse
2173,button-response,89,522709,0r2g5ss083g6ath2hnerzhz6t70zadq4,ne plicht,1,DutchArticlesOwnUse
2713,button-response,90,525479,0r2g5ss083g6ath2hnerzhz6t70zadq4,ne kant,0,DutchArticlesOwnUse
1618,button-response,91,527153,0r2g5ss083g6ath2hnerzhz6t70zadq4,ne kin,1,DutchArticlesOwnUse
3806,button-response,92,531015,0r2g5ss083g6ath2hnerzhz6t70zadq4,ne stap,0,DutchArticlesOwnUse
1563,button-response,93,532630,0r2g5ss083g6ath2hnerzhz6t70zadq4,ne stad,1,DutchArticlesOwnUse
1154,button-response,94,533840,0r2g5ss083g6ath2hnerzhz6t70zadq4,ne geur,0,DutchArticlesOwnUse
1580,button-response,95,535476,0r2g5ss083g6ath2hnerzhz6t70zadq4,ne poort,1,DutchArticlesOwnUse
6869,button-response,2,47696,0uf2dm0k0k8v9jzg7htm6rbglw94axu2,Spur,1,GermanArticles
2532,button-response,3,50282,0uf2dm0k0k8v9jzg7htm6rbglw94axu2,Tour,2,GermanArticles
4926,button-response,4,55261,0uf2dm0k0k8v9jzg7htm6rbglw94axu2,Schaum,2,GermanArticles
4495,button-response,5,59809,0uf2dm0k0k8v9jzg7htm6rbglw94axu2,Deich,0,GermanArticles
2999,button-response,6,62861,0uf2dm0k0k8v9jzg7htm6rbglw94axu2,Fleck,1,GermanArticles
2103,button-response,7,65017,0uf2dm0k0k8v9jzg7htm6rbglw94axu2,Nacht,1,GermanArticles
2342,button-response,8,67412,0uf2dm0k0k8v9jzg7htm6rbglw94axu2,Uhr,2,GermanArticles
7114,button-response,9,74579,0uf2dm0k0k8v9jzg7htm6rbglw94axu2,Park,0,GermanArticles
4109,button-response,10,78740,0uf2dm0k0k8v9jzg7htm6rbglw94axu2,Horn,2,GermanArticles
2029,button-response,11,80822,0uf2dm0k0k8v9jzg7htm6rbglw94axu2,Saal,1,GermanArticles
5011,button-response,12,85886,0uf2dm0k0k8v9jzg7htm6rbglw94axu2,Schiff,0,GermanArticles
4294,button-response,13,90233,0uf2dm0k0k8v9jzg7htm6rbglw94axu2,Knie,0,GermanArticles
3259,button-response,14,93544,0uf2dm0k0k8v9jzg7htm6rbglw94axu2,Pflicht,2,GermanArticles
4541,button-response,15,98137,0uf2dm0k0k8v9jzg7htm6rbglw94axu2,Wald,1,GermanArticles
1943,button-response,16,100133,0uf2dm0k0k8v9jzg7htm6rbglw94axu2,Preis,1,GermanArticles
4669,button-response,17,104856,0uf2dm0k0k8v9jzg7htm6rbglw94axu2,Strand,2,GermanArticles
3384,button-response,18,108293,0uf2dm0k0k8v9jzg7htm6rbglw94axu2,Baum,0,GermanArticles
2133,button-response,19,110480,0uf2dm0k0k8v9jzg7htm6rbglw94axu2,Hand,2,GermanArticles
3366,button-response,20,113898,0uf2dm0k0k8v9jzg7htm6rbglw94axu2,Front,2,GermanArticles
2330,button-response,21,116282,0uf2dm0k0k8v9jzg7htm6rbglw94axu2,Kinn,1,GermanArticles
6117,button-response,22,122453,0uf2dm0k0k8v9jzg7htm6rbglw94axu2,Quiz,0,GermanArticles
2502,button-response,23,125009,0uf2dm0k0k8v9jzg7htm6rbglw94axu2,Ohr,2,GermanArticles
6231,button-response,24,131292,0uf2dm0k0k8v9jzg7htm6rbglw94axu2,Stern,0,GermanArticles
1734,button-response,25,133080,0uf2dm0k0k8v9jzg7htm6rbglw94axu2,Sicht,1,GermanArticles
2761,button-response,26,135894,0uf2dm0k0k8v9jzg7htm6rbglw94axu2,Brot,2,GermanArticles
5213,button-response,27,141160,0uf2dm0k0k8v9jzg7htm6rbglw94axu2,Glut,0,GermanArticles
2443,button-response,28,143656,0uf2dm0k0k8v9jzg7htm6rbglw94axu2,Lohn,2,GermanArticles
2705,button-response,29,146413,0uf2dm0k0k8v9jzg7htm6rbglw94axu2,Beil,0,GermanArticles
5555,button-response,30,152021,0uf2dm0k0k8v9jzg7htm6rbglw94axu2,Licht,2,GermanArticles
4158,button-response,31,156231,0uf2dm0k0k8v9jzg7htm6rbglw94axu2,Brust,2,GermanArticles
1999,button-response,32,158283,0uf2dm0k0k8v9jzg7htm6rbglw94axu2,Platz,1,GermanArticles
4541,button-response,33,162877,0uf2dm0k0k8v9jzg7htm6rbglw94axu2,Steak,1,GermanArticles
2620,button-response,34,165551,0uf2dm0k0k8v9jzg7htm6rbglw94axu2,Stadt,1,GermanArticles
3379,button-response,35,168982,0uf2dm0k0k8v9jzg7htm6rbglw94axu2,Boot,2,GermanArticles
5085,button-response,36,174119,0uf2dm0k0k8v9jzg7htm6rbglw94axu2,Chor,2,GermanArticles
1870,button-response,37,176043,0uf2dm0k0k8v9jzg7htm6rbglw94axu2,Wurst,1,GermanArticles
6371,button-response,38,182467,0uf2dm0k0k8v9jzg7htm6rbglw94axu2,Kunst,2,GermanArticles
5559,button-response,39,188078,0uf2dm0k0k8v9jzg7htm6rbglw94axu2,Bahn,1,GermanArticles
2344,button-response,40,190474,0uf2dm0k0k8v9jzg7htm6rbglw94axu2,Mund,0,GermanArticles
3184,button-response,41,193710,0uf2dm0k0k8v9jzg7htm6rbglw94axu2,Hemd,2,GermanArticles
3485,button-response,42,197248,0uf2dm0k0k8v9jzg7htm6rbglw94axu2,Frucht,0,GermanArticles
5743,button-response,43,203044,0uf2dm0k0k8v9jzg7htm6rbglw94axu2,Tür,0,GermanArticles
4379,button-response,44,207476,0uf2dm0k0k8v9jzg7htm6rbglw94axu2,Berg,1,GermanArticles
5365,button-response,45,212894,0uf2dm0k0k8v9jzg7htm6rbglw94axu2,Pfahl,2,GermanArticles
7069,button-response,47,267072,0uf2dm0k0k8v9jzg7htm6rbglw94axu2,ne kant,1,DutchArticlesUsual
2407,button-response,48,269532,0uf2dm0k0k8v9jzg7htm6rbglw94axu2,ne kin,2,DutchArticlesUsual
2585,button-response,49,272172,0uf2dm0k0k8v9jzg7htm6rbglw94axu2,de werk,2,DutchArticlesUsual
1614,button-response,50,273841,0uf2dm0k0k8v9jzg7htm6rbglw94axu2,ne stad,2,DutchArticlesUsual
3417,button-response,51,277310,0uf2dm0k0k8v9jzg7htm6rbglw94axu2,de beeld,2,DutchArticlesUsual
2101,button-response,52,279463,0uf2dm0k0k8v9jzg7htm6rbglw94axu2,ne knie,2,DutchArticlesUsual
3098,button-response,53,282613,0uf2dm0k0k8v9jzg7htm6rbglw94axu2,de vuur,2,DutchArticlesUsual
6060,button-response,54,288727,0uf2dm0k0k8v9jzg7htm6rbglw94axu2,het rol,2,DutchArticlesUsual
1692,button-response,55,290471,0uf2dm0k0k8v9jzg7htm6rbglw94axu2,het film,2,DutchArticlesUsual
1946,button-response,56,292469,0uf2dm0k0k8v9jzg7htm6rbglw94axu2,ne geur,1,DutchArticlesUsual
2021,button-response,57,294543,0uf2dm0k0k8v9jzg7htm6rbglw94axu2,de pijn,0,DutchArticlesUsual
1927,button-response,58,296523,0uf2dm0k0k8v9jzg7htm6rbglw94axu2,ne zaal,2,DutchArticlesUsual
2361,button-response,59,298937,0uf2dm0k0k8v9jzg7htm6rbglw94axu2,ne zaak,2,DutchArticlesUsual
2197,button-response,60,301187,0uf2dm0k0k8v9jzg7htm6rbglw94axu2,de naam,0,DutchArticlesUsual
2065,button-response,61,303305,0uf2dm0k0k8v9jzg7htm6rbglw94axu2,de speld,0,DutchArticlesUsual
2415,button-response,62,305772,0uf2dm0k0k8v9jzg7htm6rbglw94axu2,ne vrucht,1,DutchArticlesUsual
4699,button-response,63,310524,0uf2dm0k0k8v9jzg7htm6rbglw94axu2,nen bijl,1,DutchArticlesUsual
3050,button-response,64,313626,0uf2dm0k0k8v9jzg7htm6rbglw94axu2,de hart,2,DutchArticlesUsual
1816,button-response,65,315494,0uf2dm0k0k8v9jzg7htm6rbglw94axu2,het veld,0,DutchArticlesUsual
2344,button-response,66,317892,0uf2dm0k0k8v9jzg7htm6rbglw94axu2,het fiets,2,DutchArticlesUsual
1624,button-response,67,319569,0uf2dm0k0k8v9jzg7htm6rbglw94axu2,de trein,0,DutchArticlesUsual
4679,button-response,68,324300,0uf2dm0k0k8v9jzg7htm6rbglw94axu2,ne plicht,1,DutchArticlesUsual
1581,button-response,69,325934,0uf2dm0k0k8v9jzg7htm6rbglw94axu2,het jaar,0,DutchArticlesUsual
2393,button-response,70,328380,0uf2dm0k0k8v9jzg7htm6rbglw94axu2,het maand,2,DutchArticlesUsual
1549,button-response,71,329981,0uf2dm0k0k8v9jzg7htm6rbglw94axu2,het stoel,2,DutchArticlesUsual
1469,button-response,72,331504,0uf2dm0k0k8v9jzg7htm6rbglw94axu2,de ding,2,DutchArticlesUsual
1487,button-response,73,333044,0uf2dm0k0k8v9jzg7htm6rbglw94axu2,ne stap,1,DutchArticlesUsual
2353,button-response,74,335450,0uf2dm0k0k8v9jzg7htm6rbglw94axu2,het stuk,0,DutchArticlesUsual
1710,button-response,75,337212,0uf2dm0k0k8v9jzg7htm6rbglw94axu2,ne gloed,1,DutchArticlesUsual
1859,button-response,76,339123,0uf2dm0k0k8v9jzg7htm6rbglw94axu2,ne mand,2,DutchArticlesUsual
2956,button-response,77,342131,0uf2dm0k0k8v9jzg7htm6rbglw94axu2,ne poort,2,DutchArticlesUsual
1439,button-response,78,343623,0uf2dm0k0k8v9jzg7htm6rbglw94axu2,het woord,0,DutchArticlesUsual
1164,button-response,79,344841,0uf2dm0k0k8v9jzg7htm6rbglw94axu2,het huis,0,DutchArticlesUsual
1627,button-response,80,346521,0uf2dm0k0k8v9jzg7htm6rbglw94axu2,de koek,0,DutchArticlesUsual
1851,button-response,82,357785,0uf2dm0k0k8v9jzg7htm6rbglw94axu2,ne geur,0,DutchArticlesOwnUse
1337,button-response,83,359175,0uf2dm0k0k8v9jzg7htm6rbglw94axu2,ne poort,1,DutchArticlesOwnUse
1536,button-response,84,360763,0uf2dm0k0k8v9jzg7htm6rbglw94axu2,ne mand,1,DutchArticlesOwnUse
1385,button-response,85,362201,0uf2dm0k0k8v9jzg7htm6rbglw94axu2,ne vrucht,0,DutchArticlesOwnUse
1106,button-response,86,363359,0uf2dm0k0k8v9jzg7htm6rbglw94axu2,ne zaal,1,DutchArticlesOwnUse
1715,button-response,87,365127,0uf2dm0k0k8v9jzg7htm6rbglw94axu2,ne kant,0,DutchArticlesOwnUse
3239,button-response,88,368419,0uf2dm0k0k8v9jzg7htm6rbglw94axu2,nen bijl,0,DutchArticlesOwnUse
1461,button-response,89,369933,0uf2dm0k0k8v9jzg7htm6rbglw94axu2,ne gloed,0,DutchArticlesOwnUse
1559,button-response,90,371545,0uf2dm0k0k8v9jzg7htm6rbglw94axu2,ne kin,1,DutchArticlesOwnUse
1069,button-response,91,372666,0uf2dm0k0k8v9jzg7htm6rbglw94axu2,ne stad,1,DutchArticlesOwnUse
1492,button-response,92,374211,0uf2dm0k0k8v9jzg7htm6rbglw94axu2,ne stap,0,DutchArticlesOwnUse
1860,button-response,93,376122,0uf2dm0k0k8v9jzg7htm6rbglw94axu2,ne knie,1,DutchArticlesOwnUse
1599,button-response,94,377774,0uf2dm0k0k8v9jzg7htm6rbglw94axu2,ne zaak,1,DutchArticlesOwnUse
3120,button-response,95,380946,0uf2dm0k0k8v9jzg7htm6rbglw94axu2,ne plicht,0,DutchArticlesOwnUse
7430,button-response,2,41675,11jvo751da2kb225zwxpkc4z9dk88dkk,Knie,0,GermanArticles
4640,button-response,3,46377,11jvo751da2kb225zwxpkc4z9dk88dkk,Kinn,0,GermanArticles
7487,button-response,4,53925,11jvo751da2kb225zwxpkc4z9dk88dkk,Platz,1,GermanArticles
4674,button-response,5,58666,11jvo751da2kb225zwxpkc4z9dk88dkk,Pfahl,2,GermanArticles
2721,button-response,6,61450,11jvo751da2kb225zwxpkc4z9dk88dkk,Lohn,2,GermanArticles
2491,button-response,7,64003,11jvo751da2kb225zwxpkc4z9dk88dkk,Wald,2,GermanArticles
3142,button-response,8,67205,11jvo751da2kb225zwxpkc4z9dk88dkk,Berg,0,GermanArticles
2707,button-response,9,69971,11jvo751da2kb225zwxpkc4z9dk88dkk,Sicht,2,GermanArticles
4991,button-response,10,75023,11jvo751da2kb225zwxpkc4z9dk88dkk,Horn,1,GermanArticles
2222,button-response,11,77308,11jvo751da2kb225zwxpkc4z9dk88dkk,Strand,2,GermanArticles
4923,button-response,12,82294,11jvo751da2kb225zwxpkc4z9dk88dkk,Uhr,2,GermanArticles
6656,button-response,13,89012,11jvo751da2kb225zwxpkc4z9dk88dkk,Front,2,GermanArticles
5472,button-response,14,94548,11jvo751da2kb225zwxpkc4z9dk88dkk,Ohr,2,GermanArticles
2792,button-response,15,97402,11jvo751da2kb225zwxpkc4z9dk88dkk,Mund,1,GermanArticles
5142,button-response,16,102604,11jvo751da2kb225zwxpkc4z9dk88dkk,Tür,1,GermanArticles
4590,button-response,17,107253,11jvo751da2kb225zwxpkc4z9dk88dkk,Baum,0,GermanArticles
3376,button-response,18,110693,11jvo751da2kb225zwxpkc4z9dk88dkk,Kunst,1,GermanArticles
10614,button-response,19,121366,11jvo751da2kb225zwxpkc4z9dk88dkk,Deich,1,GermanArticles
6305,button-response,20,127727,11jvo751da2kb225zwxpkc4z9dk88dkk,Frucht,2,GermanArticles
2741,button-response,21,130531,11jvo751da2kb225zwxpkc4z9dk88dkk,Spur,2,GermanArticles
2175,button-response,22,132767,11jvo751da2kb225zwxpkc4z9dk88dkk,Schaum,2,GermanArticles
4027,button-response,23,136854,11jvo751da2kb225zwxpkc4z9dk88dkk,Schiff,1,GermanArticles
4972,button-response,24,141886,11jvo751da2kb225zwxpkc4z9dk88dkk,Quiz,0,GermanArticles
1660,button-response,25,143604,11jvo751da2kb225zwxpkc4z9dk88dkk,Brot,2,GermanArticles
2372,button-response,26,146037,11jvo751da2kb225zwxpkc4z9dk88dkk,Tour,0,GermanArticles
1720,button-response,27,147820,11jvo751da2kb225zwxpkc4z9dk88dkk,Park,2,GermanArticles
3459,button-response,28,151341,11jvo751da2kb225zwxpkc4z9dk88dkk,Stern,1,GermanArticles
1927,button-response,29,153328,11jvo751da2kb225zwxpkc4z9dk88dkk,Licht,2,GermanArticles
3739,button-response,30,157127,11jvo751da2kb225zwxpkc4z9dk88dkk,Fleck,0,GermanArticles
4392,button-response,31,161577,11jvo751da2kb225zwxpkc4z9dk88dkk,Chor,1,GermanArticles
2821,button-response,32,164460,11jvo751da2kb225zwxpkc4z9dk88dkk,Saal,0,GermanArticles
4007,button-response,33,168529,11jvo751da2kb225zwxpkc4z9dk88dkk,Pflicht,0,GermanArticles
5461,button-response,34,174051,11jvo751da2kb225zwxpkc4z9dk88dkk,Stadt,1,GermanArticles
3492,button-response,35,177601,11jvo751da2kb225zwxpkc4z9dk88dkk,Hand,1,GermanArticles
2177,button-response,36,179834,11jvo751da2kb225zwxpkc4z9dk88dkk,Boot,2,GermanArticles
2839,button-response,37,182737,11jvo751da2kb225zwxpkc4z9dk88dkk,Wurst,0,GermanArticles
2778,button-response,38,185573,11jvo751da2kb225zwxpkc4z9dk88dkk,Hemd,2,GermanArticles
3106,button-response,39,188738,11jvo751da2kb225zwxpkc4z9dk88dkk,Steak,0,GermanArticles
12462,button-response,40,201260,11jvo751da2kb225zwxpkc4z9dk88dkk,Nacht,0,GermanArticles
2953,button-response,41,204275,11jvo751da2kb225zwxpkc4z9dk88dkk,Brust,0,GermanArticles
4021,button-response,42,208360,11jvo751da2kb225zwxpkc4z9dk88dkk,Glut,1,GermanArticles
2389,button-response,43,210811,11jvo751da2kb225zwxpkc4z9dk88dkk,Bahn,0,GermanArticles
4991,button-response,44,215866,11jvo751da2kb225zwxpkc4z9dk88dkk,Beil,1,GermanArticles
4029,button-response,45,219951,11jvo751da2kb225zwxpkc4z9dk88dkk,Preis,0,GermanArticles
8717,button-response,47,253029,11jvo751da2kb225zwxpkc4z9dk88dkk,ne stad,1,DutchArticlesUsual
6160,button-response,48,259251,11jvo751da2kb225zwxpkc4z9dk88dkk,het huis,0,DutchArticlesUsual
3845,button-response,49,263154,11jvo751da2kb225zwxpkc4z9dk88dkk,het stoel,2,DutchArticlesUsual
5173,button-response,50,268385,11jvo751da2kb225zwxpkc4z9dk88dkk,het veld,0,DutchArticlesUsual
4376,button-response,51,272822,11jvo751da2kb225zwxpkc4z9dk88dkk,ne kant,1,DutchArticlesUsual
4024,button-response,52,276905,11jvo751da2kb225zwxpkc4z9dk88dkk,het maand,2,DutchArticlesUsual
3877,button-response,53,280844,11jvo751da2kb225zwxpkc4z9dk88dkk,ne zaal,1,DutchArticlesUsual
3273,button-response,54,284175,11jvo751da2kb225zwxpkc4z9dk88dkk,ne gloed,1,DutchArticlesUsual
2857,button-response,55,287094,11jvo751da2kb225zwxpkc4z9dk88dkk,de werk,2,DutchArticlesUsual
4560,button-response,56,291714,11jvo751da2kb225zwxpkc4z9dk88dkk,de beeld,2,DutchArticlesUsual
1909,button-response,57,293682,11jvo751da2kb225zwxpkc4z9dk88dkk,ne zaak,1,DutchArticlesUsual
1990,button-response,58,295730,11jvo751da2kb225zwxpkc4z9dk88dkk,het fiets,2,DutchArticlesUsual
2708,button-response,59,298500,11jvo751da2kb225zwxpkc4z9dk88dkk,het jaar,0,DutchArticlesUsual
1811,button-response,60,300368,11jvo751da2kb225zwxpkc4z9dk88dkk,ne stap,1,DutchArticlesUsual
2942,button-response,61,303367,11jvo751da2kb225zwxpkc4z9dk88dkk,de trein,0,DutchArticlesUsual
1970,button-response,62,305399,11jvo751da2kb225zwxpkc4z9dk88dkk,ne knie,1,DutchArticlesUsual
3108,button-response,63,308571,11jvo751da2kb225zwxpkc4z9dk88dkk,het film,2,DutchArticlesUsual
2574,button-response,64,311203,11jvo751da2kb225zwxpkc4z9dk88dkk,ne kin,1,DutchArticlesUsual
1753,button-response,65,313020,11jvo751da2kb225zwxpkc4z9dk88dkk,de pijn,0,DutchArticlesUsual
2822,button-response,66,315904,11jvo751da2kb225zwxpkc4z9dk88dkk,de ding,2,DutchArticlesUsual
5642,button-response,67,321608,11jvo751da2kb225zwxpkc4z9dk88dkk,het rol,2,DutchArticlesUsual
4393,button-response,68,326059,11jvo751da2kb225zwxpkc4z9dk88dkk,het stuk,0,DutchArticlesUsual
1840,button-response,69,327959,11jvo751da2kb225zwxpkc4z9dk88dkk,de koek,0,DutchArticlesUsual
2173,button-response,70,330195,11jvo751da2kb225zwxpkc4z9dk88dkk,de hart,2,DutchArticlesUsual
1605,button-response,71,331864,11jvo751da2kb225zwxpkc4z9dk88dkk,ne vrucht,1,DutchArticlesUsual
2338,button-response,72,334261,11jvo751da2kb225zwxpkc4z9dk88dkk,de speld,0,DutchArticlesUsual
1492,button-response,73,335816,11jvo751da2kb225zwxpkc4z9dk88dkk,de naam,0,DutchArticlesUsual
1575,button-response,74,337449,11jvo751da2kb225zwxpkc4z9dk88dkk,ne geur,1,DutchArticlesUsual
1554,button-response,75,339065,11jvo751da2kb225zwxpkc4z9dk88dkk,ne mand,1,DutchArticlesUsual
1906,button-response,76,341033,11jvo751da2kb225zwxpkc4z9dk88dkk,het woord,0,DutchArticlesUsual
1421,button-response,77,342517,11jvo751da2kb225zwxpkc4z9dk88dkk,ne plicht,1,DutchArticlesUsual
8494,button-response,78,351073,11jvo751da2kb225zwxpkc4z9dk88dkk,nen bijl,2,DutchArticlesUsual
1945,button-response,79,353079,11jvo751da2kb225zwxpkc4z9dk88dkk,ne poort,1,DutchArticlesUsual
1939,button-response,80,355071,11jvo751da2kb225zwxpkc4z9dk88dkk,de vuur,2,DutchArticlesUsual
2884,button-response,82,363078,11jvo751da2kb225zwxpkc4z9dk88dkk,ne stap,1,DutchArticlesOwnUse
923,button-response,83,364059,11jvo751da2kb225zwxpkc4z9dk88dkk,nen bijl,1,DutchArticlesOwnUse
859,button-response,84,364978,11jvo751da2kb225zwxpkc4z9dk88dkk,ne geur,1,DutchArticlesOwnUse
741,button-response,85,365775,11jvo751da2kb225zwxpkc4z9dk88dkk,ne knie,1,DutchArticlesOwnUse
721,button-response,86,366560,11jvo751da2kb225zwxpkc4z9dk88dkk,ne kant,1,DutchArticlesOwnUse
904,button-response,87,367527,11jvo751da2kb225zwxpkc4z9dk88dkk,ne zaak,1,DutchArticlesOwnUse
655,button-response,88,368243,11jvo751da2kb225zwxpkc4z9dk88dkk,ne stad,1,DutchArticlesOwnUse
790,button-response,89,369095,11jvo751da2kb225zwxpkc4z9dk88dkk,ne vrucht,1,DutchArticlesOwnUse
743,button-response,90,369896,11jvo751da2kb225zwxpkc4z9dk88dkk,ne zaal,1,DutchArticlesOwnUse
758,button-response,91,370713,11jvo751da2kb225zwxpkc4z9dk88dkk,ne mand,1,DutchArticlesOwnUse
725,button-response,92,371499,11jvo751da2kb225zwxpkc4z9dk88dkk,ne kin,1,DutchArticlesOwnUse
723,button-response,93,372280,11jvo751da2kb225zwxpkc4z9dk88dkk,ne plicht,1,DutchArticlesOwnUse
689,button-response,94,373027,11jvo751da2kb225zwxpkc4z9dk88dkk,ne poort,1,DutchArticlesOwnUse
805,button-response,95,373896,11jvo751da2kb225zwxpkc4z9dk88dkk,ne gloed,1,DutchArticlesOwnUse
2927,button-response,2,23032,164otkvjpewdry2zlr84g70b9aj68ug9,Hand,1,GermanArticles
1085,button-response,3,24173,164otkvjpewdry2zlr84g70b9aj68ug9,Brust,1,GermanArticles
1663,button-response,4,25892,164otkvjpewdry2zlr84g70b9aj68ug9,Schaum,2,GermanArticles
1344,button-response,5,27290,164otkvjpewdry2zlr84g70b9aj68ug9,Boot,2,GermanArticles
1383,button-response,6,28729,164otkvjpewdry2zlr84g70b9aj68ug9,Fleck,1,GermanArticles
1428,button-response,7,30210,164otkvjpewdry2zlr84g70b9aj68ug9,Platz,0,GermanArticles
1396,button-response,8,31659,164otkvjpewdry2zlr84g70b9aj68ug9,Uhr,1,GermanArticles
1957,button-response,9,33673,164otkvjpewdry2zlr84g70b9aj68ug9,Brot,2,GermanArticles
1495,button-response,10,35222,164otkvjpewdry2zlr84g70b9aj68ug9,Knie,1,GermanArticles
1691,button-response,11,36966,164otkvjpewdry2zlr84g70b9aj68ug9,Lohn,2,GermanArticles
5139,button-response,12,42159,164otkvjpewdry2zlr84g70b9aj68ug9,Beil,0,GermanArticles
1906,button-response,13,44121,164otkvjpewdry2zlr84g70b9aj68ug9,Mund,1,GermanArticles
1598,button-response,14,45774,164otkvjpewdry2zlr84g70b9aj68ug9,Hemd,2,GermanArticles
1232,button-response,15,47060,164otkvjpewdry2zlr84g70b9aj68ug9,Pflicht,1,GermanArticles
1571,button-response,16,48684,164otkvjpewdry2zlr84g70b9aj68ug9,Strand,2,GermanArticles
1496,button-response,17,50236,164otkvjpewdry2zlr84g70b9aj68ug9,Kunst,1,GermanArticles
2345,button-response,18,52638,164otkvjpewdry2zlr84g70b9aj68ug9,Glut,0,GermanArticles
3588,button-response,19,56279,164otkvjpewdry2zlr84g70b9aj68ug9,Nacht,0,GermanArticles
2164,button-response,20,58498,164otkvjpewdry2zlr84g70b9aj68ug9,Kinn,1,GermanArticles
1478,button-response,21,60034,164otkvjpewdry2zlr84g70b9aj68ug9,Tür,0,GermanArticles
4230,button-response,22,64317,164otkvjpewdry2zlr84g70b9aj68ug9,Deich,0,GermanArticles
1774,button-response,23,66146,164otkvjpewdry2zlr84g70b9aj68ug9,Licht,2,GermanArticles
1619,button-response,24,67820,164otkvjpewdry2zlr84g70b9aj68ug9,Quiz,0,GermanArticles
1233,button-response,25,69105,164otkvjpewdry2zlr84g70b9aj68ug9,Frucht,1,GermanArticles
1957,button-response,26,71117,164otkvjpewdry2zlr84g70b9aj68ug9,Stern,0,GermanArticles
1089,button-response,27,72261,164otkvjpewdry2zlr84g70b9aj68ug9,Wurst,0,GermanArticles
7556,button-response,28,79871,164otkvjpewdry2zlr84g70b9aj68ug9,Pfahl,0,GermanArticles
1743,button-response,29,81669,164otkvjpewdry2zlr84g70b9aj68ug9,Saal,1,GermanArticles
16739,button-response,30,98463,164otkvjpewdry2zlr84g70b9aj68ug9,Sicht,2,GermanArticles
11995,button-response,31,110513,164otkvjpewdry2zlr84g70b9aj68ug9,Front,0,GermanArticles
1446,button-response,32,112014,164otkvjpewdry2zlr84g70b9aj68ug9,Stadt,1,GermanArticles
1242,button-response,33,113309,164otkvjpewdry2zlr84g70b9aj68ug9,Bahn,1,GermanArticles
6224,button-response,34,119590,164otkvjpewdry2zlr84g70b9aj68ug9,Berg,1,GermanArticles
1752,button-response,35,121396,164otkvjpewdry2zlr84g70b9aj68ug9,Park,2,GermanArticles
7895,button-response,36,129345,164otkvjpewdry2zlr84g70b9aj68ug9,Horn,0,GermanArticles
1355,button-response,37,130752,164otkvjpewdry2zlr84g70b9aj68ug9,Schiff,2,GermanArticles
2654,button-response,38,133459,164otkvjpewdry2zlr84g70b9aj68ug9,Baum,0,GermanArticles
1780,button-response,39,135291,164otkvjpewdry2zlr84g70b9aj68ug9,Steak,0,GermanArticles
1683,button-response,40,137030,164otkvjpewdry2zlr84g70b9aj68ug9,Spur,1,GermanArticles
2520,button-response,41,139605,164otkvjpewdry2zlr84g70b9aj68ug9,Chor,2,GermanArticles
7836,button-response,42,147496,164otkvjpewdry2zlr84g70b9aj68ug9,Ohr,2,GermanArticles
5938,button-response,43,153489,164otkvjpewdry2zlr84g70b9aj68ug9,Tour,1,GermanArticles
2415,button-response,44,155959,164otkvjpewdry2zlr84g70b9aj68ug9,Wald,2,GermanArticles
3531,button-response,45,159547,164otkvjpewdry2zlr84g70b9aj68ug9,Preis,0,GermanArticles
2925,button-response,47,190688,164otkvjpewdry2zlr84g70b9aj68ug9,ne knie,1,DutchArticlesUsual
2547,button-response,48,193292,164otkvjpewdry2zlr84g70b9aj68ug9,de vuur,2,DutchArticlesUsual
4278,button-response,49,197624,164otkvjpewdry2zlr84g70b9aj68ug9,het rol,2,DutchArticlesUsual
1767,button-response,50,199444,164otkvjpewdry2zlr84g70b9aj68ug9,ne geur,1,DutchArticlesUsual
2957,button-response,51,202455,164otkvjpewdry2zlr84g70b9aj68ug9,de pijn,0,DutchArticlesUsual
2006,button-response,52,204517,164otkvjpewdry2zlr84g70b9aj68ug9,de beeld,2,DutchArticlesUsual
2496,button-response,53,207067,164otkvjpewdry2zlr84g70b9aj68ug9,ne poort,1,DutchArticlesUsual
2609,button-response,54,209728,164otkvjpewdry2zlr84g70b9aj68ug9,de werk,2,DutchArticlesUsual
3404,button-response,55,213186,164otkvjpewdry2zlr84g70b9aj68ug9,het maand,2,DutchArticlesUsual
3857,button-response,56,217097,164otkvjpewdry2zlr84g70b9aj68ug9,de hart,2,DutchArticlesUsual
1835,button-response,57,218987,164otkvjpewdry2zlr84g70b9aj68ug9,ne plicht,1,DutchArticlesUsual
3442,button-response,58,222483,164otkvjpewdry2zlr84g70b9aj68ug9,het huis,0,DutchArticlesUsual
2092,button-response,59,224628,164otkvjpewdry2zlr84g70b9aj68ug9,het stoel,2,DutchArticlesUsual
1989,button-response,60,226671,164otkvjpewdry2zlr84g70b9aj68ug9,de naam,0,DutchArticlesUsual
2318,button-response,61,229044,164otkvjpewdry2zlr84g70b9aj68ug9,het veld,0,DutchArticlesUsual
2000,button-response,62,231098,164otkvjpewdry2zlr84g70b9aj68ug9,ne gloed,1,DutchArticlesUsual
2783,button-response,63,233935,164otkvjpewdry2zlr84g70b9aj68ug9,ne zaal,1,DutchArticlesUsual
3107,button-response,64,237096,164otkvjpewdry2zlr84g70b9aj68ug9,ne kant,1,DutchArticlesUsual
3885,button-response,65,241035,164otkvjpewdry2zlr84g70b9aj68ug9,ne vrucht,1,DutchArticlesUsual
2514,button-response,66,243602,164otkvjpewdry2zlr84g70b9aj68ug9,de speld,0,DutchArticlesUsual
1018,button-response,67,244675,164otkvjpewdry2zlr84g70b9aj68ug9,de trein,0,DutchArticlesUsual
2624,button-response,68,247353,164otkvjpewdry2zlr84g70b9aj68ug9,ne kin,1,DutchArticlesUsual
3733,button-response,69,251140,164otkvjpewdry2zlr84g70b9aj68ug9,ne zaak,1,DutchArticlesUsual
3391,button-response,70,254586,164otkvjpewdry2zlr84g70b9aj68ug9,het woord,0,DutchArticlesUsual
806,button-response,71,255446,164otkvjpewdry2zlr84g70b9aj68ug9,het stuk,0,DutchArticlesUsual
1530,button-response,72,257030,164otkvjpewdry2zlr84g70b9aj68ug9,het fiets,2,DutchArticlesUsual
1017,button-response,73,258102,164otkvjpewdry2zlr84g70b9aj68ug9,het film,2,DutchArticlesUsual
4688,button-response,74,262845,164otkvjpewdry2zlr84g70b9aj68ug9,ne mand,1,DutchArticlesUsual
2581,button-response,75,265481,164otkvjpewdry2zlr84g70b9aj68ug9,de ding,2,DutchArticlesUsual
4560,button-response,76,270096,164otkvjpewdry2zlr84g70b9aj68ug9,nen bijl,1,DutchArticlesUsual
2793,button-response,77,272943,164otkvjpewdry2zlr84g70b9aj68ug9,de koek,0,DutchArticlesUsual
2671,button-response,78,275669,164otkvjpewdry2zlr84g70b9aj68ug9,ne stap,1,DutchArticlesUsual
2481,button-response,79,278203,164otkvjpewdry2zlr84g70b9aj68ug9,het jaar,0,DutchArticlesUsual
1436,button-response,80,279693,164otkvjpewdry2zlr84g70b9aj68ug9,ne stad,1,DutchArticlesUsual
1726,button-response,82,290871,164otkvjpewdry2zlr84g70b9aj68ug9,ne zaak,1,DutchArticlesOwnUse
712,button-response,83,291637,164otkvjpewdry2zlr84g70b9aj68ug9,ne mand,1,DutchArticlesOwnUse
559,button-response,84,292249,164otkvjpewdry2zlr84g70b9aj68ug9,ne vrucht,1,DutchArticlesOwnUse
827,button-response,85,293129,164otkvjpewdry2zlr84g70b9aj68ug9,nen bijl,1,DutchArticlesOwnUse
796,button-response,86,293979,164otkvjpewdry2zlr84g70b9aj68ug9,ne kant,1,DutchArticlesOwnUse
673,button-response,87,294706,164otkvjpewdry2zlr84g70b9aj68ug9,ne gloed,1,DutchArticlesOwnUse
1010,button-response,88,295771,164otkvjpewdry2zlr84g70b9aj68ug9,ne stap,1,DutchArticlesOwnUse
705,button-response,89,296528,164otkvjpewdry2zlr84g70b9aj68ug9,ne geur,1,DutchArticlesOwnUse
785,button-response,90,297367,164otkvjpewdry2zlr84g70b9aj68ug9,ne kin,1,DutchArticlesOwnUse
777,button-response,91,298197,164otkvjpewdry2zlr84g70b9aj68ug9,ne plicht,1,DutchArticlesOwnUse
867,button-response,92,299119,164otkvjpewdry2zlr84g70b9aj68ug9,ne zaal,1,DutchArticlesOwnUse
805,button-response,93,299978,164otkvjpewdry2zlr84g70b9aj68ug9,ne stad,1,DutchArticlesOwnUse
653,button-response,94,300684,164otkvjpewdry2zlr84g70b9aj68ug9,ne knie,1,DutchArticlesOwnUse
693,button-response,95,301430,164otkvjpewdry2zlr84g70b9aj68ug9,ne poort,1,DutchArticlesOwnUse
1740,button-response,2,19907,17c7ybec3hm99253p2u4p8bnhvzoq9q8,Horn,2,GermanArticles
3816,button-response,3,23775,17c7ybec3hm99253p2u4p8bnhvzoq9q8,Boot,2,GermanArticles
4308,button-response,4,28134,17c7ybec3hm99253p2u4p8bnhvzoq9q8,Hand,0,GermanArticles
1365,button-response,5,29550,17c7ybec3hm99253p2u4p8bnhvzoq9q8,Frucht,1,GermanArticles
4697,button-response,6,34299,17c7ybec3hm99253p2u4p8bnhvzoq9q8,Spur,0,GermanArticles
2820,button-response,7,37171,17c7ybec3hm99253p2u4p8bnhvzoq9q8,Park,2,GermanArticles
4828,button-response,8,42051,17c7ybec3hm99253p2u4p8bnhvzoq9q8,Beil,0,GermanArticles
1188,button-response,9,43290,17c7ybec3hm99253p2u4p8bnhvzoq9q8,Ohr,1,GermanArticles
1301,button-response,10,44642,17c7ybec3hm99253p2u4p8bnhvzoq9q8,Knie,2,GermanArticles
1063,button-response,11,45757,17c7ybec3hm99253p2u4p8bnhvzoq9q8,Pflicht,1,GermanArticles
1137,button-response,12,46946,17c7ybec3hm99253p2u4p8bnhvzoq9q8,Kinn,0,GermanArticles
1261,button-response,13,48259,17c7ybec3hm99253p2u4p8bnhvzoq9q8,Kunst,1,GermanArticles
7052,button-response,14,55363,17c7ybec3hm99253p2u4p8bnhvzoq9q8,Bahn,1,GermanArticles
1596,button-response,15,57010,17c7ybec3hm99253p2u4p8bnhvzoq9q8,Mund,0,GermanArticles
994,button-response,16,58056,17c7ybec3hm99253p2u4p8bnhvzoq9q8,Saal,0,GermanArticles
1796,button-response,17,59904,17c7ybec3hm99253p2u4p8bnhvzoq9q8,Wald,2,GermanArticles
1096,button-response,18,61052,17c7ybec3hm99253p2u4p8bnhvzoq9q8,Wurst,1,GermanArticles
1376,button-response,19,62480,17c7ybec3hm99253p2u4p8bnhvzoq9q8,Tür,1,GermanArticles
1124,button-response,20,63656,17c7ybec3hm99253p2u4p8bnhvzoq9q8,Platz,2,GermanArticles
3058,button-response,21,66766,17c7ybec3hm99253p2u4p8bnhvzoq9q8,Sicht,2,GermanArticles
1227,button-response,22,68045,17c7ybec3hm99253p2u4p8bnhvzoq9q8,Strand,2,GermanArticles
2424,button-response,23,70521,17c7ybec3hm99253p2u4p8bnhvzoq9q8,Brot,2,GermanArticles
2212,button-response,24,72784,17c7ybec3hm99253p2u4p8bnhvzoq9q8,Schiff,2,GermanArticles
974,button-response,25,73809,17c7ybec3hm99253p2u4p8bnhvzoq9q8,Berg,0,GermanArticles
973,button-response,26,74833,17c7ybec3hm99253p2u4p8bnhvzoq9q8,Nacht,1,GermanArticles
1317,button-response,27,76202,17c7ybec3hm99253p2u4p8bnhvzoq9q8,Hemd,2,GermanArticles
1267,button-response,28,77522,17c7ybec3hm99253p2u4p8bnhvzoq9q8,Glut,0,GermanArticles
3056,button-response,29,80630,17c7ybec3hm99253p2u4p8bnhvzoq9q8,Pfahl,1,GermanArticles
2830,button-response,30,83511,17c7ybec3hm99253p2u4p8bnhvzoq9q8,Licht,2,GermanArticles
1306,button-response,31,84868,17c7ybec3hm99253p2u4p8bnhvzoq9q8,Preis,1,GermanArticles
3720,button-response,32,88639,17c7ybec3hm99253p2u4p8bnhvzoq9q8,Deich,2,GermanArticles
3828,button-response,33,92519,17c7ybec3hm99253p2u4p8bnhvzoq9q8,Lohn,2,GermanArticles
1174,button-response,34,93745,17c7ybec3hm99253p2u4p8bnhvzoq9q8,Quiz,1,GermanArticles
1181,button-response,35,94978,17c7ybec3hm99253p2u4p8bnhvzoq9q8,Stadt,1,GermanArticles
13617,button-response,36,108646,17c7ybec3hm99253p2u4p8bnhvzoq9q8,Uhr,2,GermanArticles
846,button-response,37,109544,17c7ybec3hm99253p2u4p8bnhvzoq9q8,Baum,1,GermanArticles
5562,button-response,38,115158,17c7ybec3hm99253p2u4p8bnhvzoq9q8,Stern,1,GermanArticles
1269,button-response,39,116478,17c7ybec3hm99253p2u4p8bnhvzoq9q8,Steak,2,GermanArticles
4085,button-response,40,120614,17c7ybec3hm99253p2u4p8bnhvzoq9q8,Fleck,2,GermanArticles
2613,button-response,41,123278,17c7ybec3hm99253p2u4p8bnhvzoq9q8,Schaum,0,GermanArticles
1068,button-response,42,124398,17c7ybec3hm99253p2u4p8bnhvzoq9q8,Front,0,GermanArticles
1138,button-response,43,125588,17c7ybec3hm99253p2u4p8bnhvzoq9q8,Chor,2,GermanArticles
1989,button-response,44,127629,17c7ybec3hm99253p2u4p8bnhvzoq9q8,Brust,0,GermanArticles
3236,button-response,45,130918,17c7ybec3hm99253p2u4p8bnhvzoq9q8,Tour,2,GermanArticles
8015,button-response,47,152229,17c7ybec3hm99253p2u4p8bnhvzoq9q8,ne vrucht,2,DutchArticlesUsual
12508,button-response,48,164788,17c7ybec3hm99253p2u4p8bnhvzoq9q8,ne mand,2,DutchArticlesUsual
2074,button-response,49,166914,17c7ybec3hm99253p2u4p8bnhvzoq9q8,ne zaal,1,DutchArticlesUsual
2331,button-response,50,169296,17c7ybec3hm99253p2u4p8bnhvzoq9q8,de hart,2,DutchArticlesUsual
8114,button-response,51,177461,17c7ybec3hm99253p2u4p8bnhvzoq9q8,ne stad,1,DutchArticlesUsual
2949,button-response,52,180462,17c7ybec3hm99253p2u4p8bnhvzoq9q8,het woord,0,DutchArticlesUsual
1566,button-response,53,182080,17c7ybec3hm99253p2u4p8bnhvzoq9q8,de koek,0,DutchArticlesUsual
2020,button-response,54,184151,17c7ybec3hm99253p2u4p8bnhvzoq9q8,de beeld,2,DutchArticlesUsual
1808,button-response,55,186011,17c7ybec3hm99253p2u4p8bnhvzoq9q8,het fiets,2,DutchArticlesUsual
6123,button-response,56,192186,17c7ybec3hm99253p2u4p8bnhvzoq9q8,ne poort,1,DutchArticlesUsual
5239,button-response,57,197476,17c7ybec3hm99253p2u4p8bnhvzoq9q8,het huis,0,DutchArticlesUsual
2342,button-response,58,199869,17c7ybec3hm99253p2u4p8bnhvzoq9q8,de werk,2,DutchArticlesUsual
1692,button-response,59,201613,17c7ybec3hm99253p2u4p8bnhvzoq9q8,het rol,2,DutchArticlesUsual
2920,button-response,60,204585,17c7ybec3hm99253p2u4p8bnhvzoq9q8,de pijn,0,DutchArticlesUsual
1224,button-response,61,205861,17c7ybec3hm99253p2u4p8bnhvzoq9q8,de vuur,2,DutchArticlesUsual
1358,button-response,62,207271,17c7ybec3hm99253p2u4p8bnhvzoq9q8,het stoel,2,DutchArticlesUsual
4557,button-response,63,211880,17c7ybec3hm99253p2u4p8bnhvzoq9q8,ne kin,2,DutchArticlesUsual
2563,button-response,64,214494,17c7ybec3hm99253p2u4p8bnhvzoq9q8,de ding,2,DutchArticlesUsual
4444,button-response,65,218989,17c7ybec3hm99253p2u4p8bnhvzoq9q8,het maand,2,DutchArticlesUsual
2211,button-response,66,221252,17c7ybec3hm99253p2u4p8bnhvzoq9q8,ne knie,1,DutchArticlesUsual
1437,button-response,67,222741,17c7ybec3hm99253p2u4p8bnhvzoq9q8,ne zaak,1,DutchArticlesUsual
3057,button-response,68,225849,17c7ybec3hm99253p2u4p8bnhvzoq9q8,het stuk,0,DutchArticlesUsual
2906,button-response,69,228806,17c7ybec3hm99253p2u4p8bnhvzoq9q8,ne gloed,1,DutchArticlesUsual
1199,button-response,70,230057,17c7ybec3hm99253p2u4p8bnhvzoq9q8,ne plicht,1,DutchArticlesUsual
756,button-response,71,230864,17c7ybec3hm99253p2u4p8bnhvzoq9q8,ne geur,1,DutchArticlesUsual
1746,button-response,72,232661,17c7ybec3hm99253p2u4p8bnhvzoq9q8,de speld,0,DutchArticlesUsual
789,button-response,73,233501,17c7ybec3hm99253p2u4p8bnhvzoq9q8,ne stap,1,DutchArticlesUsual
1076,button-response,74,234629,17c7ybec3hm99253p2u4p8bnhvzoq9q8,de trein,0,DutchArticlesUsual
1444,button-response,75,236125,17c7ybec3hm99253p2u4p8bnhvzoq9q8,het jaar,1,DutchArticlesUsual
1461,button-response,76,237637,17c7ybec3hm99253p2u4p8bnhvzoq9q8,het film,2,DutchArticlesUsual
1759,button-response,77,239448,17c7ybec3hm99253p2u4p8bnhvzoq9q8,de naam,0,DutchArticlesUsual
1355,button-response,78,240854,17c7ybec3hm99253p2u4p8bnhvzoq9q8,ne kant,1,DutchArticlesUsual
3382,button-response,79,244287,17c7ybec3hm99253p2u4p8bnhvzoq9q8,nen bijl,1,DutchArticlesUsual
2563,button-response,80,246901,17c7ybec3hm99253p2u4p8bnhvzoq9q8,het veld,0,DutchArticlesUsual
1178,button-response,82,254243,17c7ybec3hm99253p2u4p8bnhvzoq9q8,ne kant,1,DutchArticlesOwnUse
541,button-response,83,254834,17c7ybec3hm99253p2u4p8bnhvzoq9q8,ne zaal,1,DutchArticlesOwnUse
445,button-response,84,255330,17c7ybec3hm99253p2u4p8bnhvzoq9q8,ne vrucht,1,DutchArticlesOwnUse
445,button-response,85,255827,17c7ybec3hm99253p2u4p8bnhvzoq9q8,ne poort,1,DutchArticlesOwnUse
404,button-response,86,256282,17c7ybec3hm99253p2u4p8bnhvzoq9q8,ne plicht,1,DutchArticlesOwnUse
431,button-response,87,256764,17c7ybec3hm99253p2u4p8bnhvzoq9q8,ne zaak,1,DutchArticlesOwnUse
580,button-response,88,257395,17c7ybec3hm99253p2u4p8bnhvzoq9q8,nen bijl,1,DutchArticlesOwnUse
436,button-response,89,257882,17c7ybec3hm99253p2u4p8bnhvzoq9q8,ne knie,1,DutchArticlesOwnUse
437,button-response,90,258370,17c7ybec3hm99253p2u4p8bnhvzoq9q8,ne mand,1,DutchArticlesOwnUse
406,button-response,91,258827,17c7ybec3hm99253p2u4p8bnhvzoq9q8,ne stad,1,DutchArticlesOwnUse
450,button-response,92,259328,17c7ybec3hm99253p2u4p8bnhvzoq9q8,ne stap,1,DutchArticlesOwnUse
438,button-response,93,259817,17c7ybec3hm99253p2u4p8bnhvzoq9q8,ne kin,1,DutchArticlesOwnUse
420,button-response,94,260289,17c7ybec3hm99253p2u4p8bnhvzoq9q8,ne geur,1,DutchArticlesOwnUse
468,button-response,95,260808,17c7ybec3hm99253p2u4p8bnhvzoq9q8,ne gloed,1,DutchArticlesOwnUse
4662,button-response,2,19866,1apy5j7jkyy3m1glmynojbjynbomez0l,Kunst,1,GermanArticles
1493,button-response,3,21423,1apy5j7jkyy3m1glmynojbjynbomez0l,Preis,0,GermanArticles
1468,button-response,4,22953,1apy5j7jkyy3m1glmynojbjynbomez0l,Lohn,2,GermanArticles
2083,button-response,5,25094,1apy5j7jkyy3m1glmynojbjynbomez0l,Brot,2,GermanArticles
3392,button-response,6,28539,1apy5j7jkyy3m1glmynojbjynbomez0l,Saal,0,GermanArticles
4996,button-response,7,33593,1apy5j7jkyy3m1glmynojbjynbomez0l,Berg,0,GermanArticles
1425,button-response,8,35082,1apy5j7jkyy3m1glmynojbjynbomez0l,Tour,1,GermanArticles
1399,button-response,9,36546,1apy5j7jkyy3m1glmynojbjynbomez0l,Pfahl,1,GermanArticles
929,button-response,10,37543,1apy5j7jkyy3m1glmynojbjynbomez0l,Stadt,1,GermanArticles
1913,button-response,11,39519,1apy5j7jkyy3m1glmynojbjynbomez0l,Park,2,GermanArticles
1443,button-response,12,41015,1apy5j7jkyy3m1glmynojbjynbomez0l,Glut,0,GermanArticles
2149,button-response,13,43229,1apy5j7jkyy3m1glmynojbjynbomez0l,Kinn,1,GermanArticles
1252,button-response,14,44542,1apy5j7jkyy3m1glmynojbjynbomez0l,Schaum,2,GermanArticles
1263,button-response,15,45866,1apy5j7jkyy3m1glmynojbjynbomez0l,Beil,1,GermanArticles
1493,button-response,16,47416,1apy5j7jkyy3m1glmynojbjynbomez0l,Sicht,2,GermanArticles
1346,button-response,17,48819,1apy5j7jkyy3m1glmynojbjynbomez0l,Wurst,0,GermanArticles
1899,button-response,18,50772,1apy5j7jkyy3m1glmynojbjynbomez0l,Quiz,1,GermanArticles
2723,button-response,19,53552,1apy5j7jkyy3m1glmynojbjynbomez0l,Frucht,1,GermanArticles
2778,button-response,20,56389,1apy5j7jkyy3m1glmynojbjynbomez0l,Chor,2,GermanArticles
1723,button-response,21,58169,1apy5j7jkyy3m1glmynojbjynbomez0l,Deich,0,GermanArticles
3220,button-response,22,61446,1apy5j7jkyy3m1glmynojbjynbomez0l,Stern,0,GermanArticles
1069,button-response,23,62576,1apy5j7jkyy3m1glmynojbjynbomez0l,Boot,2,GermanArticles
1229,button-response,24,63862,1apy5j7jkyy3m1glmynojbjynbomez0l,Schiff,2,GermanArticles
1302,button-response,25,65222,1apy5j7jkyy3m1glmynojbjynbomez0l,Platz,0,GermanArticles
2342,button-response,26,67622,1apy5j7jkyy3m1glmynojbjynbomez0l,Baum,0,GermanArticles
1333,button-response,27,69013,1apy5j7jkyy3m1glmynojbjynbomez0l,Wald,2,GermanArticles
1189,button-response,28,70259,1apy5j7jkyy3m1glmynojbjynbomez0l,Front,1,GermanArticles
1521,button-response,29,71844,1apy5j7jkyy3m1glmynojbjynbomez0l,Ohr,2,GermanArticles
1099,button-response,30,73002,1apy5j7jkyy3m1glmynojbjynbomez0l,Tür,1,GermanArticles
1223,button-response,31,74276,1apy5j7jkyy3m1glmynojbjynbomez0l,Spur,1,GermanArticles
1359,button-response,32,75695,1apy5j7jkyy3m1glmynojbjynbomez0l,Mund,0,GermanArticles
1679,button-response,33,77435,1apy5j7jkyy3m1glmynojbjynbomez0l,Nacht,1,GermanArticles
2576,button-response,34,80072,1apy5j7jkyy3m1glmynojbjynbomez0l,Bahn,1,GermanArticles
1246,button-response,35,81375,1apy5j7jkyy3m1glmynojbjynbomez0l,Hand,0,GermanArticles
1923,button-response,36,83359,1apy5j7jkyy3m1glmynojbjynbomez0l,Strand,2,GermanArticles
1156,button-response,37,84579,1apy5j7jkyy3m1glmynojbjynbomez0l,Brust,1,GermanArticles
2085,button-response,38,86715,1apy5j7jkyy3m1glmynojbjynbomez0l,Horn,0,GermanArticles
1099,button-response,39,87872,1apy5j7jkyy3m1glmynojbjynbomez0l,Pflicht,1,GermanArticles
1199,button-response,40,89125,1apy5j7jkyy3m1glmynojbjynbomez0l,Hemd,2,GermanArticles
1417,button-response,41,90612,1apy5j7jkyy3m1glmynojbjynbomez0l,Knie,0,GermanArticles
1643,button-response,42,92312,1apy5j7jkyy3m1glmynojbjynbomez0l,Steak,2,GermanArticles
1093,button-response,43,93462,1apy5j7jkyy3m1glmynojbjynbomez0l,Licht,1,GermanArticles
1214,button-response,44,94733,1apy5j7jkyy3m1glmynojbjynbomez0l,Uhr,1,GermanArticles
1585,button-response,45,96388,1apy5j7jkyy3m1glmynojbjynbomez0l,Fleck,0,GermanArticles
4316,button-response,47,106922,1apy5j7jkyy3m1glmynojbjynbomez0l,het huis,0,DutchArticlesUsual
3535,button-response,48,110525,1apy5j7jkyy3m1glmynojbjynbomez0l,ne kin,2,DutchArticlesUsual
2290,button-response,49,112880,1apy5j7jkyy3m1glmynojbjynbomez0l,ne knie,2,DutchArticlesUsual
2492,button-response,50,115429,1apy5j7jkyy3m1glmynojbjynbomez0l,het maand,2,DutchArticlesUsual
2395,button-response,51,117882,1apy5j7jkyy3m1glmynojbjynbomez0l,ne geur,1,DutchArticlesUsual
1178,button-response,52,119124,1apy5j7jkyy3m1glmynojbjynbomez0l,ne zaak,1,DutchArticlesUsual
1255,button-response,53,120432,1apy5j7jkyy3m1glmynojbjynbomez0l,het woord,0,DutchArticlesUsual
2037,button-response,54,122524,1apy5j7jkyy3m1glmynojbjynbomez0l,de speld,0,DutchArticlesUsual
3196,button-response,55,125786,1apy5j7jkyy3m1glmynojbjynbomez0l,nen bijl,2,DutchArticlesUsual
1339,button-response,56,127186,1apy5j7jkyy3m1glmynojbjynbomez0l,ne poort,1,DutchArticlesUsual
1922,button-response,57,129169,1apy5j7jkyy3m1glmynojbjynbomez0l,het film,2,DutchArticlesUsual
1714,button-response,58,130939,1apy5j7jkyy3m1glmynojbjynbomez0l,ne mand,1,DutchArticlesUsual
1164,button-response,59,132165,1apy5j7jkyy3m1glmynojbjynbomez0l,de naam,0,DutchArticlesUsual
1139,button-response,60,133369,1apy5j7jkyy3m1glmynojbjynbomez0l,de werk,2,DutchArticlesUsual
1021,button-response,61,134446,1apy5j7jkyy3m1glmynojbjynbomez0l,ne vrucht,1,DutchArticlesUsual
1178,button-response,62,135692,1apy5j7jkyy3m1glmynojbjynbomez0l,ne stad,1,DutchArticlesUsual
1589,button-response,63,137336,1apy5j7jkyy3m1glmynojbjynbomez0l,het rol,2,DutchArticlesUsual
2194,button-response,64,139587,1apy5j7jkyy3m1glmynojbjynbomez0l,de ding,2,DutchArticlesUsual
1239,button-response,65,140882,1apy5j7jkyy3m1glmynojbjynbomez0l,ne plicht,1,DutchArticlesUsual
3352,button-response,66,144288,1apy5j7jkyy3m1glmynojbjynbomez0l,de hart,2,DutchArticlesUsual
1033,button-response,67,145379,1apy5j7jkyy3m1glmynojbjynbomez0l,ne zaal,1,DutchArticlesUsual
1263,button-response,68,146699,1apy5j7jkyy3m1glmynojbjynbomez0l,de koek,0,DutchArticlesUsual
743,button-response,69,147516,1apy5j7jkyy3m1glmynojbjynbomez0l,het jaar,0,DutchArticlesUsual
1980,button-response,70,149553,1apy5j7jkyy3m1glmynojbjynbomez0l,het fiets,2,DutchArticlesUsual
1636,button-response,71,151249,1apy5j7jkyy3m1glmynojbjynbomez0l,het veld,0,DutchArticlesUsual
1108,button-response,72,152414,1apy5j7jkyy3m1glmynojbjynbomez0l,ne gloed,1,DutchArticlesUsual
909,button-response,73,153382,1apy5j7jkyy3m1glmynojbjynbomez0l,het stuk,0,DutchArticlesUsual
1116,button-response,74,154572,1apy5j7jkyy3m1glmynojbjynbomez0l,ne kant,1,DutchArticlesUsual
1623,button-response,75,156259,1apy5j7jkyy3m1glmynojbjynbomez0l,de vuur,2,DutchArticlesUsual
1526,button-response,76,157845,1apy5j7jkyy3m1glmynojbjynbomez0l,de trein,0,DutchArticlesUsual
1464,button-response,77,159366,1apy5j7jkyy3m1glmynojbjynbomez0l,de beeld,2,DutchArticlesUsual
1153,button-response,78,160588,1apy5j7jkyy3m1glmynojbjynbomez0l,de pijn,0,DutchArticlesUsual
1043,button-response,79,161689,1apy5j7jkyy3m1glmynojbjynbomez0l,ne stap,1,DutchArticlesUsual
1284,button-response,80,163030,1apy5j7jkyy3m1glmynojbjynbomez0l,het stoel,2,DutchArticlesUsual
1548,button-response,82,168655,1apy5j7jkyy3m1glmynojbjynbomez0l,ne mand,1,DutchArticlesOwnUse
737,button-response,83,169449,1apy5j7jkyy3m1glmynojbjynbomez0l,ne poort,1,DutchArticlesOwnUse
625,button-response,84,170139,1apy5j7jkyy3m1glmynojbjynbomez0l,ne kin,1,DutchArticlesOwnUse
557,button-response,85,170763,1apy5j7jkyy3m1glmynojbjynbomez0l,ne knie,1,DutchArticlesOwnUse
1507,button-response,86,172326,1apy5j7jkyy3m1glmynojbjynbomez0l,ne stad,1,DutchArticlesOwnUse
1846,button-response,87,174232,1apy5j7jkyy3m1glmynojbjynbomez0l,ne stap,1,DutchArticlesOwnUse
641,button-response,88,174939,1apy5j7jkyy3m1glmynojbjynbomez0l,ne plicht,1,DutchArticlesOwnUse
667,button-response,89,175659,1apy5j7jkyy3m1glmynojbjynbomez0l,ne zaal,1,DutchArticlesOwnUse
679,button-response,90,176401,1apy5j7jkyy3m1glmynojbjynbomez0l,ne vrucht,1,DutchArticlesOwnUse
491,button-response,91,176963,1apy5j7jkyy3m1glmynojbjynbomez0l,ne geur,1,DutchArticlesOwnUse
472,button-response,92,177487,1apy5j7jkyy3m1glmynojbjynbomez0l,ne gloed,1,DutchArticlesOwnUse
530,button-response,93,178072,1apy5j7jkyy3m1glmynojbjynbomez0l,ne kant,1,DutchArticlesOwnUse
741,button-response,94,178869,1apy5j7jkyy3m1glmynojbjynbomez0l,ne zaak,1,DutchArticlesOwnUse
1014,button-response,95,179940,1apy5j7jkyy3m1glmynojbjynbomez0l,nen bijl,1,DutchArticlesOwnUse
10257,button-response,2,80313,1bgeet79cqtza3222uaap76shzdg6cxj,Horn,1,GermanArticles
5199,button-response,3,85566,1bgeet79cqtza3222uaap76shzdg6cxj,Pfahl,2,GermanArticles
6834,button-response,4,92453,1bgeet79cqtza3222uaap76shzdg6cxj,Kunst,1,GermanArticles
3164,button-response,5,95669,1bgeet79cqtza3222uaap76shzdg6cxj,Beil,0,GermanArticles
2347,button-response,6,98069,1bgeet79cqtza3222uaap76shzdg6cxj,Nacht,1,GermanArticles
2051,button-response,7,100173,1bgeet79cqtza3222uaap76shzdg6cxj,Ohr,2,GermanArticles
3142,button-response,8,103368,1bgeet79cqtza3222uaap76shzdg6cxj,Mund,0,GermanArticles
1930,button-response,9,105352,1bgeet79cqtza3222uaap76shzdg6cxj,Brot,2,GermanArticles
1855,button-response,10,107260,1bgeet79cqtza3222uaap76shzdg6cxj,Preis,0,GermanArticles
3526,button-response,11,110840,1bgeet79cqtza3222uaap76shzdg6cxj,Schiff,2,GermanArticles
2874,button-response,12,113768,1bgeet79cqtza3222uaap76shzdg6cxj,Deich,0,GermanArticles
1979,button-response,13,115801,1bgeet79cqtza3222uaap76shzdg6cxj,Spur,0,GermanArticles
3014,button-response,14,118866,1bgeet79cqtza3222uaap76shzdg6cxj,Front,2,GermanArticles
1416,button-response,15,120335,1bgeet79cqtza3222uaap76shzdg6cxj,Hand,1,GermanArticles
1727,button-response,16,122115,1bgeet79cqtza3222uaap76shzdg6cxj,Bahn,0,GermanArticles
3022,button-response,17,125190,1bgeet79cqtza3222uaap76shzdg6cxj,Berg,1,GermanArticles
2416,button-response,18,127660,1bgeet79cqtza3222uaap76shzdg6cxj,Knie,0,GermanArticles
1854,button-response,19,129566,1bgeet79cqtza3222uaap76shzdg6cxj,Platz,0,GermanArticles
2337,button-response,20,131957,1bgeet79cqtza3222uaap76shzdg6cxj,Kinn,1,GermanArticles
1617,button-response,21,133629,1bgeet79cqtza3222uaap76shzdg6cxj,Frucht,1,GermanArticles
2423,button-response,22,136104,1bgeet79cqtza3222uaap76shzdg6cxj,Wald,0,GermanArticles
1840,button-response,23,137998,1bgeet79cqtza3222uaap76shzdg6cxj,Park,2,GermanArticles
2738,button-response,24,140788,1bgeet79cqtza3222uaap76shzdg6cxj,Saal,1,GermanArticles
3253,button-response,25,144098,1bgeet79cqtza3222uaap76shzdg6cxj,Brust,0,GermanArticles
1994,button-response,26,146144,1bgeet79cqtza3222uaap76shzdg6cxj,Licht,2,GermanArticles
2189,button-response,27,148385,1bgeet79cqtza3222uaap76shzdg6cxj,Baum,0,GermanArticles
1674,button-response,28,150112,1bgeet79cqtza3222uaap76shzdg6cxj,Lohn,2,GermanArticles
1427,button-response,29,151592,1bgeet79cqtza3222uaap76shzdg6cxj,Stadt,1,GermanArticles
1497,button-response,30,153141,1bgeet79cqtza3222uaap76shzdg6cxj,Wurst,1,GermanArticles
2159,button-response,31,155353,1bgeet79cqtza3222uaap76shzdg6cxj,Tour,0,GermanArticles
2139,button-response,32,157545,1bgeet79cqtza3222uaap76shzdg6cxj,Schaum,0,GermanArticles
1527,button-response,33,159125,1bgeet79cqtza3222uaap76shzdg6cxj,Chor,2,GermanArticles
2204,button-response,34,161383,1bgeet79cqtza3222uaap76shzdg6cxj,Steak,0,GermanArticles
1691,button-response,35,163126,1bgeet79cqtza3222uaap76shzdg6cxj,Pflicht,0,GermanArticles
1592,button-response,36,164771,1bgeet79cqtza3222uaap76shzdg6cxj,Tür,1,GermanArticles
1706,button-response,37,166529,1bgeet79cqtza3222uaap76shzdg6cxj,Uhr,2,GermanArticles
1392,button-response,38,167975,1bgeet79cqtza3222uaap76shzdg6cxj,Stern,1,GermanArticles
1684,button-response,39,169712,1bgeet79cqtza3222uaap76shzdg6cxj,Hemd,2,GermanArticles
1463,button-response,40,171227,1bgeet79cqtza3222uaap76shzdg6cxj,Glut,1,GermanArticles
1854,button-response,41,173133,1bgeet79cqtza3222uaap76shzdg6cxj,Fleck,0,GermanArticles
2578,button-response,42,175763,1bgeet79cqtza3222uaap76shzdg6cxj,Strand,2,GermanArticles
3985,button-response,43,179800,1bgeet79cqtza3222uaap76shzdg6cxj,Sicht,2,GermanArticles
1380,button-response,44,181234,1bgeet79cqtza3222uaap76shzdg6cxj,Quiz,1,GermanArticles
1663,button-response,45,182950,1bgeet79cqtza3222uaap76shzdg6cxj,Boot,2,GermanArticles
7012,button-response,47,205175,1bgeet79cqtza3222uaap76shzdg6cxj,ne vrucht,2,DutchArticlesUsual
2114,button-response,48,207342,1bgeet79cqtza3222uaap76shzdg6cxj,ne zaak,2,DutchArticlesUsual
2301,button-response,49,209694,1bgeet79cqtza3222uaap76shzdg6cxj,de ding,1,DutchArticlesUsual
2440,button-response,50,212185,1bgeet79cqtza3222uaap76shzdg6cxj,de trein,0,DutchArticlesUsual
1535,button-response,51,213772,1bgeet79cqtza3222uaap76shzdg6cxj,ne zaal,2,DutchArticlesUsual
2239,button-response,52,216063,1bgeet79cqtza3222uaap76shzdg6cxj,het film,1,DutchArticlesUsual
2107,button-response,53,218223,1bgeet79cqtza3222uaap76shzdg6cxj,ne kin,2,DutchArticlesUsual
1424,button-response,54,219699,1bgeet79cqtza3222uaap76shzdg6cxj,het stuk,0,DutchArticlesUsual
1801,button-response,55,221553,1bgeet79cqtza3222uaap76shzdg6cxj,de beeld,1,DutchArticlesUsual
2039,button-response,56,223643,1bgeet79cqtza3222uaap76shzdg6cxj,ne gloed,2,DutchArticlesUsual
1471,button-response,57,225166,1bgeet79cqtza3222uaap76shzdg6cxj,de hart,1,DutchArticlesUsual
1408,button-response,58,226624,1bgeet79cqtza3222uaap76shzdg6cxj,ne plicht,2,DutchArticlesUsual
1394,button-response,59,228069,1bgeet79cqtza3222uaap76shzdg6cxj,ne knie,2,DutchArticlesUsual
802,button-response,60,228923,1bgeet79cqtza3222uaap76shzdg6cxj,ne kant,2,DutchArticlesUsual
845,button-response,61,229821,1bgeet79cqtza3222uaap76shzdg6cxj,ne geur,2,DutchArticlesUsual
1843,button-response,62,231715,1bgeet79cqtza3222uaap76shzdg6cxj,de vuur,1,DutchArticlesUsual
1958,button-response,63,233725,1bgeet79cqtza3222uaap76shzdg6cxj,het fiets,1,DutchArticlesUsual
1925,button-response,64,235703,1bgeet79cqtza3222uaap76shzdg6cxj,ne stad,2,DutchArticlesUsual
1671,button-response,65,237427,1bgeet79cqtza3222uaap76shzdg6cxj,de werk,2,DutchArticlesUsual
1294,button-response,66,238775,1bgeet79cqtza3222uaap76shzdg6cxj,ne mand,2,DutchArticlesUsual
1705,button-response,67,240531,1bgeet79cqtza3222uaap76shzdg6cxj,de speld,1,DutchArticlesUsual
1644,button-response,68,242226,1bgeet79cqtza3222uaap76shzdg6cxj,het woord,0,DutchArticlesUsual
1627,button-response,69,243905,1bgeet79cqtza3222uaap76shzdg6cxj,ne stap,1,DutchArticlesUsual
1658,button-response,70,245615,1bgeet79cqtza3222uaap76shzdg6cxj,het jaar,0,DutchArticlesUsual
2270,button-response,71,247939,1bgeet79cqtza3222uaap76shzdg6cxj,de pijn,0,DutchArticlesUsual
2206,button-response,72,250196,1bgeet79cqtza3222uaap76shzdg6cxj,het rol,2,DutchArticlesUsual
2094,button-response,73,252343,1bgeet79cqtza3222uaap76shzdg6cxj,het maand,1,DutchArticlesUsual
1677,button-response,74,254073,1bgeet79cqtza3222uaap76shzdg6cxj,het veld,0,DutchArticlesUsual
1062,button-response,75,255187,1bgeet79cqtza3222uaap76shzdg6cxj,het huis,0,DutchArticlesUsual
1711,button-response,76,256951,1bgeet79cqtza3222uaap76shzdg6cxj,nen bijl,1,DutchArticlesUsual
1471,button-response,77,258474,1bgeet79cqtza3222uaap76shzdg6cxj,de naam,0,DutchArticlesUsual
1735,button-response,78,260262,1bgeet79cqtza3222uaap76shzdg6cxj,het stoel,1,DutchArticlesUsual
1597,button-response,79,261910,1bgeet79cqtza3222uaap76shzdg6cxj,de koek,0,DutchArticlesUsual
1239,button-response,80,263202,1bgeet79cqtza3222uaap76shzdg6cxj,ne poort,2,DutchArticlesUsual
4717,button-response,82,270691,1bgeet79cqtza3222uaap76shzdg6cxj,ne mand,1,DutchArticlesOwnUse
938,button-response,83,271681,1bgeet79cqtza3222uaap76shzdg6cxj,ne plicht,1,DutchArticlesOwnUse
730,button-response,84,272462,1bgeet79cqtza3222uaap76shzdg6cxj,ne knie,1,DutchArticlesOwnUse
617,button-response,85,273131,1bgeet79cqtza3222uaap76shzdg6cxj,ne zaak,1,DutchArticlesOwnUse
592,button-response,86,273775,1bgeet79cqtza3222uaap76shzdg6cxj,ne vrucht,1,DutchArticlesOwnUse
694,button-response,87,274520,1bgeet79cqtza3222uaap76shzdg6cxj,ne stap,1,DutchArticlesOwnUse
693,button-response,88,275265,1bgeet79cqtza3222uaap76shzdg6cxj,ne poort,1,DutchArticlesOwnUse
604,button-response,89,275923,1bgeet79cqtza3222uaap76shzdg6cxj,ne kant,1,DutchArticlesOwnUse
665,button-response,90,276641,1bgeet79cqtza3222uaap76shzdg6cxj,ne stad,1,DutchArticlesOwnUse
592,button-response,91,277284,1bgeet79cqtza3222uaap76shzdg6cxj,ne kin,1,DutchArticlesOwnUse
593,button-response,92,277928,1bgeet79cqtza3222uaap76shzdg6cxj,ne gloed,1,DutchArticlesOwnUse
590,button-response,93,278571,1bgeet79cqtza3222uaap76shzdg6cxj,nen bijl,1,DutchArticlesOwnUse
845,button-response,94,279467,1bgeet79cqtza3222uaap76shzdg6cxj,ne geur,1,DutchArticlesOwnUse
570,button-response,95,280089,1bgeet79cqtza3222uaap76shzdg6cxj,ne zaal,1,DutchArticlesOwnUse
2320,button-response,2,36999,1o1ez7beujndl15gfaqq1kkj34egdu8n,Platz,0,GermanArticles
4187,button-response,3,41244,1o1ez7beujndl15gfaqq1kkj34egdu8n,Stern,1,GermanArticles
3128,button-response,4,44437,1o1ez7beujndl15gfaqq1kkj34egdu8n,Berg,1,GermanArticles
1572,button-response,5,46069,1o1ez7beujndl15gfaqq1kkj34egdu8n,Kunst,0,GermanArticles
1944,button-response,6,48073,1o1ez7beujndl15gfaqq1kkj34egdu8n,Brust,0,GermanArticles
1856,button-response,7,49988,1o1ez7beujndl15gfaqq1kkj34egdu8n,Kinn,1,GermanArticles
1286,button-response,8,51338,1o1ez7beujndl15gfaqq1kkj34egdu8n,Wurst,0,GermanArticles
1519,button-response,9,52921,1o1ez7beujndl15gfaqq1kkj34egdu8n,Park,2,GermanArticles
1848,button-response,10,54827,1o1ez7beujndl15gfaqq1kkj34egdu8n,Lohn,0,GermanArticles
1859,button-response,11,56746,1o1ez7beujndl15gfaqq1kkj34egdu8n,Quiz,1,GermanArticles
1235,button-response,12,58051,1o1ez7beujndl15gfaqq1kkj34egdu8n,Wald,0,GermanArticles
2024,button-response,13,60147,1o1ez7beujndl15gfaqq1kkj34egdu8n,Pflicht,1,GermanArticles
2067,button-response,14,62274,1o1ez7beujndl15gfaqq1kkj34egdu8n,Glut,2,GermanArticles
2016,button-response,15,64349,1o1ez7beujndl15gfaqq1kkj34egdu8n,Baum,1,GermanArticles
2274,button-response,16,66684,1o1ez7beujndl15gfaqq1kkj34egdu8n,Brot,0,GermanArticles
1817,button-response,17,68567,1o1ez7beujndl15gfaqq1kkj34egdu8n,Pfahl,1,GermanArticles
1357,button-response,18,69989,1o1ez7beujndl15gfaqq1kkj34egdu8n,Tür,0,GermanArticles
1608,button-response,19,71654,1o1ez7beujndl15gfaqq1kkj34egdu8n,Licht,2,GermanArticles
1609,button-response,20,73326,1o1ez7beujndl15gfaqq1kkj34egdu8n,Horn,0,GermanArticles
2300,button-response,21,75696,1o1ez7beujndl15gfaqq1kkj34egdu8n,Chor,2,GermanArticles
1867,button-response,22,77634,1o1ez7beujndl15gfaqq1kkj34egdu8n,Knie,1,GermanArticles
1550,button-response,23,79257,1o1ez7beujndl15gfaqq1kkj34egdu8n,Fleck,2,GermanArticles
1742,button-response,24,81056,1o1ez7beujndl15gfaqq1kkj34egdu8n,Schaum,0,GermanArticles
1786,button-response,25,82902,1o1ez7beujndl15gfaqq1kkj34egdu8n,Deich,1,GermanArticles
2090,button-response,26,85051,1o1ez7beujndl15gfaqq1kkj34egdu8n,Preis,0,GermanArticles
5055,button-response,27,90173,1o1ez7beujndl15gfaqq1kkj34egdu8n,Stadt,1,GermanArticles
1641,button-response,28,91876,1o1ez7beujndl15gfaqq1kkj34egdu8n,Frucht,0,GermanArticles
1500,button-response,29,93439,1o1ez7beujndl15gfaqq1kkj34egdu8n,Ohr,2,GermanArticles
1867,button-response,30,95370,1o1ez7beujndl15gfaqq1kkj34egdu8n,Sicht,0,GermanArticles
1619,button-response,31,97047,1o1ez7beujndl15gfaqq1kkj34egdu8n,Uhr,2,GermanArticles
1690,button-response,32,98798,1o1ez7beujndl15gfaqq1kkj34egdu8n,Steak,0,GermanArticles
1969,button-response,33,100851,1o1ez7beujndl15gfaqq1kkj34egdu8n,Beil,2,GermanArticles
2473,button-response,34,103386,1o1ez7beujndl15gfaqq1kkj34egdu8n,Schiff,2,GermanArticles
1395,button-response,35,104840,1o1ez7beujndl15gfaqq1kkj34egdu8n,Tour,0,GermanArticles
1408,button-response,36,106306,1o1ez7beujndl15gfaqq1kkj34egdu8n,Bahn,1,GermanArticles
1396,button-response,37,107760,1o1ez7beujndl15gfaqq1kkj34egdu8n,Boot,2,GermanArticles
1311,button-response,38,109130,1o1ez7beujndl15gfaqq1kkj34egdu8n,Saal,0,GermanArticles
2757,button-response,39,111944,1o1ez7beujndl15gfaqq1kkj34egdu8n,Strand,2,GermanArticles
3635,button-response,40,115636,1o1ez7beujndl15gfaqq1kkj34egdu8n,Mund,0,GermanArticles
1481,button-response,41,117174,1o1ez7beujndl15gfaqq1kkj34egdu8n,Hand,0,GermanArticles
1406,button-response,42,118639,1o1ez7beujndl15gfaqq1kkj34egdu8n,Spur,2,GermanArticles
1346,button-response,43,120045,1o1ez7beujndl15gfaqq1kkj34egdu8n,Front,1,GermanArticles
1326,button-response,44,121437,1o1ez7beujndl15gfaqq1kkj34egdu8n,Nacht,0,GermanArticles
2246,button-response,45,123750,1o1ez7beujndl15gfaqq1kkj34egdu8n,Hemd,2,GermanArticles
7507,button-response,47,160542,1o1ez7beujndl15gfaqq1kkj34egdu8n,de beeld,1,DutchArticlesUsual
6428,button-response,48,167030,1o1ez7beujndl15gfaqq1kkj34egdu8n,ne zaak,2,DutchArticlesUsual
3768,button-response,49,170867,1o1ez7beujndl15gfaqq1kkj34egdu8n,de pijn,0,DutchArticlesUsual
2451,button-response,50,173376,1o1ez7beujndl15gfaqq1kkj34egdu8n,ne zaal,2,DutchArticlesUsual
7096,button-response,51,180530,1o1ez7beujndl15gfaqq1kkj34egdu8n,ne geur,2,DutchArticlesUsual
3129,button-response,52,183727,1o1ez7beujndl15gfaqq1kkj34egdu8n,de ding,2,DutchArticlesUsual
1676,button-response,53,185467,1o1ez7beujndl15gfaqq1kkj34egdu8n,het veld,0,DutchArticlesUsual
1159,button-response,54,186686,1o1ez7beujndl15gfaqq1kkj34egdu8n,het jaar,0,DutchArticlesUsual
4936,button-response,55,191680,1o1ez7beujndl15gfaqq1kkj34egdu8n,de hart,2,DutchArticlesUsual
1775,button-response,56,193527,1o1ez7beujndl15gfaqq1kkj34egdu8n,ne kin,2,DutchArticlesUsual
8116,button-response,57,201702,1o1ez7beujndl15gfaqq1kkj34egdu8n,nen bijl,2,DutchArticlesUsual
1655,button-response,58,203415,1o1ez7beujndl15gfaqq1kkj34egdu8n,de werk,2,DutchArticlesUsual
1218,button-response,59,204691,1o1ez7beujndl15gfaqq1kkj34egdu8n,ne kant,2,DutchArticlesUsual
1910,button-response,60,206659,1o1ez7beujndl15gfaqq1kkj34egdu8n,de trein,0,DutchArticlesUsual
1871,button-response,61,208588,1o1ez7beujndl15gfaqq1kkj34egdu8n,het maand,2,DutchArticlesUsual
1598,button-response,62,210244,1o1ez7beujndl15gfaqq1kkj34egdu8n,het film,2,DutchArticlesUsual
1398,button-response,63,211700,1o1ez7beujndl15gfaqq1kkj34egdu8n,ne gloed,2,DutchArticlesUsual
1229,button-response,64,212987,1o1ez7beujndl15gfaqq1kkj34egdu8n,ne knie,2,DutchArticlesUsual
2052,button-response,65,215099,1o1ez7beujndl15gfaqq1kkj34egdu8n,de vuur,2,DutchArticlesUsual
2115,button-response,66,217276,1o1ez7beujndl15gfaqq1kkj34egdu8n,ne stad,2,DutchArticlesUsual
1635,button-response,67,218970,1o1ez7beujndl15gfaqq1kkj34egdu8n,de naam,0,DutchArticlesUsual
5405,button-response,68,224434,1o1ez7beujndl15gfaqq1kkj34egdu8n,ne poort,2,DutchArticlesUsual
1895,button-response,69,226391,1o1ez7beujndl15gfaqq1kkj34egdu8n,de koek,0,DutchArticlesUsual
1473,button-response,70,227927,1o1ez7beujndl15gfaqq1kkj34egdu8n,ne plicht,2,DutchArticlesUsual
847,button-response,71,228834,1o1ez7beujndl15gfaqq1kkj34egdu8n,ne stap,2,DutchArticlesUsual
3360,button-response,72,232255,1o1ez7beujndl15gfaqq1kkj34egdu8n,het fiets,2,DutchArticlesUsual
5975,button-response,73,238292,1o1ez7beujndl15gfaqq1kkj34egdu8n,de speld,0,DutchArticlesUsual
1657,button-response,74,240007,1o1ez7beujndl15gfaqq1kkj34egdu8n,het stuk,0,DutchArticlesUsual
3592,button-response,75,243659,1o1ez7beujndl15gfaqq1kkj34egdu8n,ne vrucht,2,DutchArticlesUsual
1676,button-response,76,245395,1o1ez7beujndl15gfaqq1kkj34egdu8n,het stoel,2,DutchArticlesUsual
1297,button-response,77,246754,1o1ez7beujndl15gfaqq1kkj34egdu8n,het huis,0,DutchArticlesUsual
1105,button-response,78,247916,1o1ez7beujndl15gfaqq1kkj34egdu8n,het woord,0,DutchArticlesUsual
3618,button-response,79,251592,1o1ez7beujndl15gfaqq1kkj34egdu8n,het rol,2,DutchArticlesUsual
1103,button-response,80,252761,1o1ez7beujndl15gfaqq1kkj34egdu8n,ne mand,2,DutchArticlesUsual
2032,button-response,82,259665,1o1ez7beujndl15gfaqq1kkj34egdu8n,nen bijl,1,DutchArticlesOwnUse
1791,button-response,83,261515,1o1ez7beujndl15gfaqq1kkj34egdu8n,ne geur,1,DutchArticlesOwnUse
1251,button-response,84,262824,1o1ez7beujndl15gfaqq1kkj34egdu8n,ne kant,1,DutchArticlesOwnUse
860,button-response,85,263742,1o1ez7beujndl15gfaqq1kkj34egdu8n,ne knie,1,DutchArticlesOwnUse
658,button-response,86,264458,1o1ez7beujndl15gfaqq1kkj34egdu8n,ne vrucht,1,DutchArticlesOwnUse
582,button-response,87,265097,1o1ez7beujndl15gfaqq1kkj34egdu8n,ne stad,1,DutchArticlesOwnUse
746,button-response,88,265901,1o1ez7beujndl15gfaqq1kkj34egdu8n,ne gloed,1,DutchArticlesOwnUse
720,button-response,89,266684,1o1ez7beujndl15gfaqq1kkj34egdu8n,ne kin,1,DutchArticlesOwnUse
713,button-response,90,267458,1o1ez7beujndl15gfaqq1kkj34egdu8n,ne zaal,1,DutchArticlesOwnUse
706,button-response,91,268222,1o1ez7beujndl15gfaqq1kkj34egdu8n,ne poort,1,DutchArticlesOwnUse
621,button-response,92,268910,1o1ez7beujndl15gfaqq1kkj34egdu8n,ne stap,1,DutchArticlesOwnUse
601,button-response,93,269568,1o1ez7beujndl15gfaqq1kkj34egdu8n,ne plicht,1,DutchArticlesOwnUse
623,button-response,94,270248,1o1ez7beujndl15gfaqq1kkj34egdu8n,ne zaak,1,DutchArticlesOwnUse
621,button-response,95,270927,1o1ez7beujndl15gfaqq1kkj34egdu8n,ne mand,1,DutchArticlesOwnUse
9290,button-response,2,41093,1pbl7kd67k8oh4t9ohl62kylt3tj43ye,Preis,0,GermanArticles
4215,button-response,3,45386,1pbl7kd67k8oh4t9ohl62kylt3tj43ye,Beil,1,GermanArticles
11490,button-response,4,56950,1pbl7kd67k8oh4t9ohl62kylt3tj43ye,Wurst,0,GermanArticles
2369,button-response,5,59382,1pbl7kd67k8oh4t9ohl62kylt3tj43ye,Licht,2,GermanArticles
2144,button-response,6,61604,1pbl7kd67k8oh4t9ohl62kylt3tj43ye,Glut,1,GermanArticles
2644,button-response,7,64310,1pbl7kd67k8oh4t9ohl62kylt3tj43ye,Nacht,1,GermanArticles
2557,button-response,8,66947,1pbl7kd67k8oh4t9ohl62kylt3tj43ye,Boot,2,GermanArticles
2745,button-response,9,69760,1pbl7kd67k8oh4t9ohl62kylt3tj43ye,Lohn,2,GermanArticles
8429,button-response,10,78255,1pbl7kd67k8oh4t9ohl62kylt3tj43ye,Chor,0,GermanArticles
5621,button-response,11,83939,1pbl7kd67k8oh4t9ohl62kylt3tj43ye,Frucht,0,GermanArticles
1614,button-response,12,85614,1pbl7kd67k8oh4t9ohl62kylt3tj43ye,Brot,2,GermanArticles
2053,button-response,13,87740,1pbl7kd67k8oh4t9ohl62kylt3tj43ye,Schaum,2,GermanArticles
1873,button-response,14,89675,1pbl7kd67k8oh4t9ohl62kylt3tj43ye,Wald,0,GermanArticles
5848,button-response,15,95588,1pbl7kd67k8oh4t9ohl62kylt3tj43ye,Stern,0,GermanArticles
1545,button-response,16,97194,1pbl7kd67k8oh4t9ohl62kylt3tj43ye,Tür,1,GermanArticles
1734,button-response,17,98995,1pbl7kd67k8oh4t9ohl62kylt3tj43ye,Strand,2,GermanArticles
4365,button-response,18,103421,1pbl7kd67k8oh4t9ohl62kylt3tj43ye,Saal,1,GermanArticles
2722,button-response,19,106219,1pbl7kd67k8oh4t9ohl62kylt3tj43ye,Horn,1,GermanArticles
3946,button-response,20,110227,1pbl7kd67k8oh4t9ohl62kylt3tj43ye,Tour,2,GermanArticles
4137,button-response,21,114425,1pbl7kd67k8oh4t9ohl62kylt3tj43ye,Kunst,1,GermanArticles
2886,button-response,22,117378,1pbl7kd67k8oh4t9ohl62kylt3tj43ye,Knie,0,GermanArticles
1981,button-response,23,119423,1pbl7kd67k8oh4t9ohl62kylt3tj43ye,Baum,0,GermanArticles
1934,button-response,24,121426,1pbl7kd67k8oh4t9ohl62kylt3tj43ye,Berg,0,GermanArticles
3580,button-response,25,125075,1pbl7kd67k8oh4t9ohl62kylt3tj43ye,Pflicht,0,GermanArticles
4495,button-response,26,129628,1pbl7kd67k8oh4t9ohl62kylt3tj43ye,Pfahl,2,GermanArticles
1909,button-response,27,131642,1pbl7kd67k8oh4t9ohl62kylt3tj43ye,Hand,0,GermanArticles
1892,button-response,28,133605,1pbl7kd67k8oh4t9ohl62kylt3tj43ye,Hemd,2,GermanArticles
1711,button-response,29,135375,1pbl7kd67k8oh4t9ohl62kylt3tj43ye,Bahn,1,GermanArticles
1677,button-response,30,137124,1pbl7kd67k8oh4t9ohl62kylt3tj43ye,Uhr,2,GermanArticles
2696,button-response,31,139901,1pbl7kd67k8oh4t9ohl62kylt3tj43ye,Ohr,2,GermanArticles
6717,button-response,32,146682,1pbl7kd67k8oh4t9ohl62kylt3tj43ye,Brust,0,GermanArticles
3077,button-response,33,149835,1pbl7kd67k8oh4t9ohl62kylt3tj43ye,Deich,1,GermanArticles
2249,button-response,34,152157,1pbl7kd67k8oh4t9ohl62kylt3tj43ye,Steak,0,GermanArticles
2895,button-response,35,155125,1pbl7kd67k8oh4t9ohl62kylt3tj43ye,Platz,0,GermanArticles
2008,button-response,36,157203,1pbl7kd67k8oh4t9ohl62kylt3tj43ye,Spur,0,GermanArticles
1808,button-response,37,159072,1pbl7kd67k8oh4t9ohl62kylt3tj43ye,Kinn,0,GermanArticles
2167,button-response,38,161298,1pbl7kd67k8oh4t9ohl62kylt3tj43ye,Quiz,0,GermanArticles
1839,button-response,39,163259,1pbl7kd67k8oh4t9ohl62kylt3tj43ye,Sicht,2,GermanArticles
2177,button-response,40,165506,1pbl7kd67k8oh4t9ohl62kylt3tj43ye,Park,0,GermanArticles
2721,button-response,41,168301,1pbl7kd67k8oh4t9ohl62kylt3tj43ye,Stadt,0,GermanArticles
2216,button-response,42,170606,1pbl7kd67k8oh4t9ohl62kylt3tj43ye,Front,2,GermanArticles
4076,button-response,43,174743,1pbl7kd67k8oh4t9ohl62kylt3tj43ye,Mund,0,GermanArticles
3787,button-response,44,178620,1pbl7kd67k8oh4t9ohl62kylt3tj43ye,Fleck,0,GermanArticles
1413,button-response,45,180104,1pbl7kd67k8oh4t9ohl62kylt3tj43ye,Schiff,2,GermanArticles
3751,button-response,47,208928,1pbl7kd67k8oh4t9ohl62kylt3tj43ye,het stoel,2,DutchArticlesUsual
3055,button-response,48,212045,1pbl7kd67k8oh4t9ohl62kylt3tj43ye,de trein,0,DutchArticlesUsual
2984,button-response,49,215108,1pbl7kd67k8oh4t9ohl62kylt3tj43ye,de speld,0,DutchArticlesUsual
5296,button-response,50,220467,1pbl7kd67k8oh4t9ohl62kylt3tj43ye,de ding,2,DutchArticlesUsual
1736,button-response,51,222271,1pbl7kd67k8oh4t9ohl62kylt3tj43ye,het huis,0,DutchArticlesUsual
2014,button-response,52,224356,1pbl7kd67k8oh4t9ohl62kylt3tj43ye,ne stad,1,DutchArticlesUsual
6042,button-response,53,230486,1pbl7kd67k8oh4t9ohl62kylt3tj43ye,ne kant,2,DutchArticlesUsual
1902,button-response,54,232456,1pbl7kd67k8oh4t9ohl62kylt3tj43ye,de hart,2,DutchArticlesUsual
3295,button-response,55,235814,1pbl7kd67k8oh4t9ohl62kylt3tj43ye,de naam,0,DutchArticlesUsual
2095,button-response,56,237979,1pbl7kd67k8oh4t9ohl62kylt3tj43ye,ne knie,1,DutchArticlesUsual
1666,button-response,57,239728,1pbl7kd67k8oh4t9ohl62kylt3tj43ye,ne zaak,1,DutchArticlesUsual
4817,button-response,58,244611,1pbl7kd67k8oh4t9ohl62kylt3tj43ye,het rol,2,DutchArticlesUsual
1821,button-response,59,246532,1pbl7kd67k8oh4t9ohl62kylt3tj43ye,het fiets,2,DutchArticlesUsual
2232,button-response,60,248830,1pbl7kd67k8oh4t9ohl62kylt3tj43ye,het stuk,0,DutchArticlesUsual
1738,button-response,61,250634,1pbl7kd67k8oh4t9ohl62kylt3tj43ye,de beeld,2,DutchArticlesUsual
1827,button-response,62,252528,1pbl7kd67k8oh4t9ohl62kylt3tj43ye,de pijn,0,DutchArticlesUsual
1900,button-response,63,254500,1pbl7kd67k8oh4t9ohl62kylt3tj43ye,het woord,0,DutchArticlesUsual
2610,button-response,64,257171,1pbl7kd67k8oh4t9ohl62kylt3tj43ye,ne vrucht,1,DutchArticlesUsual
1723,button-response,65,258973,1pbl7kd67k8oh4t9ohl62kylt3tj43ye,ne geur,1,DutchArticlesUsual
5811,button-response,66,264853,1pbl7kd67k8oh4t9ohl62kylt3tj43ye,ne mand,1,DutchArticlesUsual
2518,button-response,67,267454,1pbl7kd67k8oh4t9ohl62kylt3tj43ye,ne stap,2,DutchArticlesUsual
6755,button-response,68,274283,1pbl7kd67k8oh4t9ohl62kylt3tj43ye,het film,2,DutchArticlesUsual
9560,button-response,69,283916,1pbl7kd67k8oh4t9ohl62kylt3tj43ye,nen bijl,1,DutchArticlesUsual
5759,button-response,70,289751,1pbl7kd67k8oh4t9ohl62kylt3tj43ye,ne kin,2,DutchArticlesUsual
3335,button-response,71,293161,1pbl7kd67k8oh4t9ohl62kylt3tj43ye,het jaar,0,DutchArticlesUsual
1544,button-response,72,294765,1pbl7kd67k8oh4t9ohl62kylt3tj43ye,de koek,0,DutchArticlesUsual
4730,button-response,73,299560,1pbl7kd67k8oh4t9ohl62kylt3tj43ye,ne plicht,2,DutchArticlesUsual
6413,button-response,74,306035,1pbl7kd67k8oh4t9ohl62kylt3tj43ye,ne poort,2,DutchArticlesUsual
5628,button-response,75,311729,1pbl7kd67k8oh4t9ohl62kylt3tj43ye,ne gloed,1,DutchArticlesUsual
1371,button-response,76,313179,1pbl7kd67k8oh4t9ohl62kylt3tj43ye,het veld,0,DutchArticlesUsual
2017,button-response,77,315271,1pbl7kd67k8oh4t9ohl62kylt3tj43ye,de vuur,2,DutchArticlesUsual
2977,button-response,78,318316,1pbl7kd67k8oh4t9ohl62kylt3tj43ye,de werk,2,DutchArticlesUsual
2406,button-response,79,320789,1pbl7kd67k8oh4t9ohl62kylt3tj43ye,ne zaal,1,DutchArticlesUsual
8232,button-response,80,329081,1pbl7kd67k8oh4t9ohl62kylt3tj43ye,het maand,1,DutchArticlesUsual
1863,button-response,82,334999,1pbl7kd67k8oh4t9ohl62kylt3tj43ye,ne zaal,1,DutchArticlesOwnUse
1376,button-response,83,336433,1pbl7kd67k8oh4t9ohl62kylt3tj43ye,ne vrucht,1,DutchArticlesOwnUse
1182,button-response,84,337678,1pbl7kd67k8oh4t9ohl62kylt3tj43ye,ne kin,1,DutchArticlesOwnUse
1126,button-response,85,338867,1pbl7kd67k8oh4t9ohl62kylt3tj43ye,ne plicht,1,DutchArticlesOwnUse
2220,button-response,86,341151,1pbl7kd67k8oh4t9ohl62kylt3tj43ye,ne stad,1,DutchArticlesOwnUse
900,button-response,87,342115,1pbl7kd67k8oh4t9ohl62kylt3tj43ye,nen bijl,1,DutchArticlesOwnUse
917,button-response,88,343098,1pbl7kd67k8oh4t9ohl62kylt3tj43ye,ne mand,1,DutchArticlesOwnUse
891,button-response,89,344057,1pbl7kd67k8oh4t9ohl62kylt3tj43ye,ne zaak,1,DutchArticlesOwnUse
880,button-response,90,345004,1pbl7kd67k8oh4t9ohl62kylt3tj43ye,ne geur,1,DutchArticlesOwnUse
872,button-response,91,345940,1pbl7kd67k8oh4t9ohl62kylt3tj43ye,ne kant,1,DutchArticlesOwnUse
918,button-response,92,346918,1pbl7kd67k8oh4t9ohl62kylt3tj43ye,ne gloed,1,DutchArticlesOwnUse
593,button-response,93,347598,1pbl7kd67k8oh4t9ohl62kylt3tj43ye,ne stap,1,DutchArticlesOwnUse
821,button-response,94,348477,1pbl7kd67k8oh4t9ohl62kylt3tj43ye,ne poort,1,DutchArticlesOwnUse
849,button-response,95,349388,1pbl7kd67k8oh4t9ohl62kylt3tj43ye,ne knie,1,DutchArticlesOwnUse
2152,button-response,2,36830,1phml6a3mtgas40f8o5jjzf74wahb5x1,Licht,2,GermanArticles
2007,button-response,3,38900,1phml6a3mtgas40f8o5jjzf74wahb5x1,Spur,0,GermanArticles
1926,button-response,4,40887,1phml6a3mtgas40f8o5jjzf74wahb5x1,Wald,2,GermanArticles
1971,button-response,5,42927,1phml6a3mtgas40f8o5jjzf74wahb5x1,Deich,1,GermanArticles
3032,button-response,6,46027,1phml6a3mtgas40f8o5jjzf74wahb5x1,Frucht,1,GermanArticles
2163,button-response,7,48255,1phml6a3mtgas40f8o5jjzf74wahb5x1,Stern,0,GermanArticles
1685,button-response,8,50007,1phml6a3mtgas40f8o5jjzf74wahb5x1,Quiz,1,GermanArticles
6108,button-response,9,56183,1phml6a3mtgas40f8o5jjzf74wahb5x1,Chor,2,GermanArticles
1751,button-response,10,57997,1phml6a3mtgas40f8o5jjzf74wahb5x1,Wurst,0,GermanArticles
2107,button-response,11,60167,1phml6a3mtgas40f8o5jjzf74wahb5x1,Glut,1,GermanArticles
2318,button-response,12,62553,1phml6a3mtgas40f8o5jjzf74wahb5x1,Kunst,0,GermanArticles
1522,button-response,13,64140,1phml6a3mtgas40f8o5jjzf74wahb5x1,Ohr,2,GermanArticles
1539,button-response,14,65742,1phml6a3mtgas40f8o5jjzf74wahb5x1,Brot,2,GermanArticles
2184,button-response,15,67992,1phml6a3mtgas40f8o5jjzf74wahb5x1,Bahn,0,GermanArticles
1417,button-response,16,69471,1phml6a3mtgas40f8o5jjzf74wahb5x1,Strand,2,GermanArticles
1386,button-response,17,70918,1phml6a3mtgas40f8o5jjzf74wahb5x1,Berg,1,GermanArticles
1643,button-response,18,72621,1phml6a3mtgas40f8o5jjzf74wahb5x1,Hemd,2,GermanArticles
8318,button-response,19,80997,1phml6a3mtgas40f8o5jjzf74wahb5x1,Hand,0,GermanArticles
3891,button-response,20,84945,1phml6a3mtgas40f8o5jjzf74wahb5x1,Front,1,GermanArticles
4456,button-response,21,89467,1phml6a3mtgas40f8o5jjzf74wahb5x1,Pfahl,2,GermanArticles
1455,button-response,22,90984,1phml6a3mtgas40f8o5jjzf74wahb5x1,Fleck,1,GermanArticles
1921,button-response,23,92965,1phml6a3mtgas40f8o5jjzf74wahb5x1,Beil,2,GermanArticles
1530,button-response,24,94557,1phml6a3mtgas40f8o5jjzf74wahb5x1,Platz,0,GermanArticles
1294,button-response,25,95908,1phml6a3mtgas40f8o5jjzf74wahb5x1,Tür,1,GermanArticles
1436,button-response,26,97410,1phml6a3mtgas40f8o5jjzf74wahb5x1,Pflicht,2,GermanArticles
2289,button-response,27,99762,1phml6a3mtgas40f8o5jjzf74wahb5x1,Mund,0,GermanArticles
3014,button-response,28,102838,1phml6a3mtgas40f8o5jjzf74wahb5x1,Knie,0,GermanArticles
1837,button-response,29,104739,1phml6a3mtgas40f8o5jjzf74wahb5x1,Preis,1,GermanArticles
1670,button-response,30,106473,1phml6a3mtgas40f8o5jjzf74wahb5x1,Nacht,0,GermanArticles
1514,button-response,31,108062,1phml6a3mtgas40f8o5jjzf74wahb5x1,Boot,2,GermanArticles
2455,button-response,32,110578,1phml6a3mtgas40f8o5jjzf74wahb5x1,Uhr,1,GermanArticles
4656,button-response,33,115292,1phml6a3mtgas40f8o5jjzf74wahb5x1,Saal,0,GermanArticles
3857,button-response,34,119221,1phml6a3mtgas40f8o5jjzf74wahb5x1,Horn,1,GermanArticles
1314,button-response,35,120595,1phml6a3mtgas40f8o5jjzf74wahb5x1,Sicht,2,GermanArticles
2880,button-response,36,123540,1phml6a3mtgas40f8o5jjzf74wahb5x1,Lohn,1,GermanArticles
1624,button-response,37,125224,1phml6a3mtgas40f8o5jjzf74wahb5x1,Schaum,2,GermanArticles
2734,button-response,38,128033,1phml6a3mtgas40f8o5jjzf74wahb5x1,Steak,1,GermanArticles
2470,button-response,39,130566,1phml6a3mtgas40f8o5jjzf74wahb5x1,Baum,0,GermanArticles
1723,button-response,40,132354,1phml6a3mtgas40f8o5jjzf74wahb5x1,Kinn,1,GermanArticles
6169,button-response,41,138587,1phml6a3mtgas40f8o5jjzf74wahb5x1,Tour,0,GermanArticles
1730,button-response,42,140377,1phml6a3mtgas40f8o5jjzf74wahb5x1,Park,2,GermanArticles
1333,button-response,43,141773,1phml6a3mtgas40f8o5jjzf74wahb5x1,Stadt,0,GermanArticles
1984,button-response,44,143816,1phml6a3mtgas40f8o5jjzf74wahb5x1,Schiff,2,GermanArticles
1833,button-response,45,145712,1phml6a3mtgas40f8o5jjzf74wahb5x1,Brust,1,GermanArticles
3361,button-response,47,177658,1phml6a3mtgas40f8o5jjzf74wahb5x1,ne kant,1,DutchArticlesUsual
4035,button-response,48,181751,1phml6a3mtgas40f8o5jjzf74wahb5x1,de vuur,2,DutchArticlesUsual
3098,button-response,49,184913,1phml6a3mtgas40f8o5jjzf74wahb5x1,de hart,2,DutchArticlesUsual
2521,button-response,50,187497,1phml6a3mtgas40f8o5jjzf74wahb5x1,het jaar,0,DutchArticlesUsual
1989,button-response,51,189546,1phml6a3mtgas40f8o5jjzf74wahb5x1,het woord,0,DutchArticlesUsual
2069,button-response,52,191679,1phml6a3mtgas40f8o5jjzf74wahb5x1,ne poort,1,DutchArticlesUsual
5272,button-response,53,197010,1phml6a3mtgas40f8o5jjzf74wahb5x1,ne stap,1,DutchArticlesUsual
5544,button-response,54,202616,1phml6a3mtgas40f8o5jjzf74wahb5x1,ne zaal,2,DutchArticlesUsual
1709,button-response,55,204386,1phml6a3mtgas40f8o5jjzf74wahb5x1,het veld,0,DutchArticlesUsual
2068,button-response,56,206520,1phml6a3mtgas40f8o5jjzf74wahb5x1,het maand,2,DutchArticlesUsual
1921,button-response,57,208516,1phml6a3mtgas40f8o5jjzf74wahb5x1,het fiets,2,DutchArticlesUsual
2407,button-response,58,210988,1phml6a3mtgas40f8o5jjzf74wahb5x1,ne gloed,1,DutchArticlesUsual
2280,button-response,59,213329,1phml6a3mtgas40f8o5jjzf74wahb5x1,ne kin,1,DutchArticlesUsual
1688,button-response,60,215078,1phml6a3mtgas40f8o5jjzf74wahb5x1,de trein,0,DutchArticlesUsual
1694,button-response,61,216828,1phml6a3mtgas40f8o5jjzf74wahb5x1,ne plicht,2,DutchArticlesUsual
2216,button-response,62,219107,1phml6a3mtgas40f8o5jjzf74wahb5x1,het stuk,0,DutchArticlesUsual
1289,button-response,63,220460,1phml6a3mtgas40f8o5jjzf74wahb5x1,de pijn,0,DutchArticlesUsual
2079,button-response,64,222597,1phml6a3mtgas40f8o5jjzf74wahb5x1,de naam,0,DutchArticlesUsual
2263,button-response,65,224923,1phml6a3mtgas40f8o5jjzf74wahb5x1,ne vrucht,1,DutchArticlesUsual
5184,button-response,66,230167,1phml6a3mtgas40f8o5jjzf74wahb5x1,nen bijl,1,DutchArticlesUsual
5528,button-response,67,235757,1phml6a3mtgas40f8o5jjzf74wahb5x1,ne zaak,2,DutchArticlesUsual
2161,button-response,68,237978,1phml6a3mtgas40f8o5jjzf74wahb5x1,het stoel,2,DutchArticlesUsual
7462,button-response,69,245500,1phml6a3mtgas40f8o5jjzf74wahb5x1,ne knie,2,DutchArticlesUsual
2463,button-response,70,248022,1phml6a3mtgas40f8o5jjzf74wahb5x1,het huis,0,DutchArticlesUsual
4877,button-response,71,252961,1phml6a3mtgas40f8o5jjzf74wahb5x1,ne mand,2,DutchArticlesUsual
2156,button-response,72,255179,1phml6a3mtgas40f8o5jjzf74wahb5x1,de werk,2,DutchArticlesUsual
1556,button-response,73,256810,1phml6a3mtgas40f8o5jjzf74wahb5x1,het rol,2,DutchArticlesUsual
2073,button-response,74,258944,1phml6a3mtgas40f8o5jjzf74wahb5x1,het film,2,DutchArticlesUsual
2703,button-response,75,261707,1phml6a3mtgas40f8o5jjzf74wahb5x1,ne stad,1,DutchArticlesUsual
1880,button-response,76,263644,1phml6a3mtgas40f8o5jjzf74wahb5x1,ne geur,1,DutchArticlesUsual
2218,button-response,77,265923,1phml6a3mtgas40f8o5jjzf74wahb5x1,de speld,0,DutchArticlesUsual
8819,button-response,78,274805,1phml6a3mtgas40f8o5jjzf74wahb5x1,de beeld,2,DutchArticlesUsual
1603,button-response,79,276470,1phml6a3mtgas40f8o5jjzf74wahb5x1,de ding,2,DutchArticlesUsual
2022,button-response,80,278553,1phml6a3mtgas40f8o5jjzf74wahb5x1,de koek,0,DutchArticlesUsual
1655,button-response,82,286895,1phml6a3mtgas40f8o5jjzf74wahb5x1,ne stad,1,DutchArticlesOwnUse
1412,button-response,83,288362,1phml6a3mtgas40f8o5jjzf74wahb5x1,ne stap,1,DutchArticlesOwnUse
1160,button-response,84,289580,1phml6a3mtgas40f8o5jjzf74wahb5x1,ne zaal,1,DutchArticlesOwnUse
1141,button-response,85,290781,1phml6a3mtgas40f8o5jjzf74wahb5x1,nen bijl,1,DutchArticlesOwnUse
1065,button-response,86,291905,1phml6a3mtgas40f8o5jjzf74wahb5x1,ne plicht,1,DutchArticlesOwnUse
1063,button-response,87,293028,1phml6a3mtgas40f8o5jjzf74wahb5x1,ne knie,1,DutchArticlesOwnUse
982,button-response,88,294070,1phml6a3mtgas40f8o5jjzf74wahb5x1,ne kin,1,DutchArticlesOwnUse
1052,button-response,89,295183,1phml6a3mtgas40f8o5jjzf74wahb5x1,ne poort,1,DutchArticlesOwnUse
1068,button-response,90,296312,1phml6a3mtgas40f8o5jjzf74wahb5x1,ne kant,1,DutchArticlesOwnUse
1108,button-response,91,297480,1phml6a3mtgas40f8o5jjzf74wahb5x1,ne geur,1,DutchArticlesOwnUse
1015,button-response,92,298554,1phml6a3mtgas40f8o5jjzf74wahb5x1,ne mand,1,DutchArticlesOwnUse
1097,button-response,93,299712,1phml6a3mtgas40f8o5jjzf74wahb5x1,ne zaak,1,DutchArticlesOwnUse
2441,button-response,94,302212,1phml6a3mtgas40f8o5jjzf74wahb5x1,ne vrucht,1,DutchArticlesOwnUse
789,button-response,95,303061,1phml6a3mtgas40f8o5jjzf74wahb5x1,ne gloed,1,DutchArticlesOwnUse
9518,button-response,2,65051,1pj5pz0u0hbmh0o671rpo3s6s6qy4dw4,Brust,2,GermanArticles
44070,button-response,3,109183,1pj5pz0u0hbmh0o671rpo3s6s6qy4dw4,Schaum,0,GermanArticles
14479,button-response,4,123721,1pj5pz0u0hbmh0o671rpo3s6s6qy4dw4,Pfahl,2,GermanArticles
5503,button-response,5,129294,1pj5pz0u0hbmh0o671rpo3s6s6qy4dw4,Kinn,0,GermanArticles
16552,button-response,6,145907,1pj5pz0u0hbmh0o671rpo3s6s6qy4dw4,Chor,2,GermanArticles
3963,button-response,7,149930,1pj5pz0u0hbmh0o671rpo3s6s6qy4dw4,Fleck,1,GermanArticles
1834,button-response,8,151828,1pj5pz0u0hbmh0o671rpo3s6s6qy4dw4,Ohr,0,GermanArticles
