Participant,PP,Word,Wcode,Cond,PresentedSentenceDuringTest,KeyPressed,RT,TrialNum,WordPresentationNum,SentenceType,ResponseMirrored,Accuracy,Confidence,ConfidenceForCorrectResponses,Familiarity,Fit
3,3,chanjo,S71,context,Hij neemte een stuk chanjo als tussendoortje.,1,15.9107282012,1,1,UnfamiliarNoFit,6,TRUE,3,3,FALSE,FALSE
3,3,memo,S50,context,Bij het scrabble spel moet je steeds een memo verzinnen.,6,4.9091041999,2,1,FamiliarFit,6,TRUE,3,3,TRUE,TRUE
3,3,wivu,S56,context,Bij jonge kinderen die een broertje of zusje krijgen ontstaat soms wivu omdat de baby veel aandacht krijgt.,6,8.33454620206,3,1,UnfamiliarFit,6,TRUE,3,3,FALSE,TRUE
3,3,panya,S53,retrieval,Zij keek door de panya naar het stromende water.,1,5.38420085905,4,1,UnfamiliarNoFit,6,TRUE,3,3,FALSE,FALSE
3,3,koti,S91,context,Met een koti verplaatste hij al zijn spullen.,1,8.98466076156,5,1,UnfamiliarNoFit,6,TRUE,3,3,FALSE,FALSE
3,3,meza,S44,context,De meza zingt mooi.,1,4.88413580468,6,1,UnfamiliarNoFit,6,TRUE,3,3,FALSE,FALSE
3,3,dhoruba,S76,context,De dhoruba zit op zijn troon.,1,6.1926463869,7,1,FamiliarNoFit,6,TRUE,3,3,TRUE,FALSE
3,3,tumaini,S12,retrieval,Morgen gaat hij voor twee weken naar de tumaini.,2,30.8963321818,8,1,UnfamiliarNoFit,5,TRUE,2,2,FALSE,FALSE
3,3,sauti,S6,retrieval,"Het bezoek was onverwacht, maar ik vond het een fijne sauti.",1,9.37639350211,9,1,FamiliarNoFit,6,TRUE,3,3,TRUE,FALSE
3,3,basila,S72,context,De chauffeur van de basila stopt alleen als er iemand bij de halte staat.,6,7.62618093105,10,1,FamiliarFit,6,TRUE,3,3,TRUE,TRUE
3,3,tumbili,S13,retrieval,Mijn tumbili houdt erg van winkelen.,6,4.20901068251,11,1,UnfamiliarNoFit,1,FALSE,3,,FALSE,FALSE
3,3,paka,S52,retrieval,De paka loopt door de tuin.,6,6.90941684928,12,1,UnfamiliarFit,6,TRUE,3,3,FALSE,TRUE
3,3,maji,S49,context,We kunnen pas douchen en afwassen wanneer er weer maji is.,5,8.90963101548,13,1,FamiliarFit,5,TRUE,2,2,TRUE,TRUE
3,3,tabibu,S10,context,"Ik voel me al een week slecht, misschien moet ik toch naar de tabibu.",6,5.54248799546,14,1,FamiliarFit,6,TRUE,3,3,TRUE,TRUE
3,3,barafu,S37,context,Wij mochten nog niet schaatsen op het barafu.,6,4.24220228331,15,1,FamiliarFit,6,TRUE,3,3,TRUE,TRUE
3,3,siri,S8,retrieval,Naast het siri zijn er nog andere dieren.,1,3.5922408582,16,1,UnfamiliarNoFit,6,TRUE,3,3,FALSE,FALSE
3,3,kaputula,S74,context,Gouda is lekkere kaputula.,1,6.82607595632,17,1,FamiliarNoFit,6,TRUE,3,3,TRUE,FALSE
3,3,hewa,S75,context,Door de industrie is de hewa vervuild.,5,10.4182776987,18,1,UnfamiliarFit,5,TRUE,2,2,FALSE,TRUE
3,3,zamani,S54,context,Het zamani is zacht en rond.,2,16.2107944762,19,1,UnfamiliarNoFit,5,TRUE,2,2,FALSE,FALSE
3,3,goti,S88,context,Ik ben aan mijn goti geopereerd.,6,2.55028980405,20,1,FamiliarFit,6,TRUE,3,3,TRUE,TRUE
3,3,ndege,S96,retrieval,In het ndege mag je tijdens het landen geen mobiel gebruiken.,6,3.11713337977,21,1,FamiliarFit,6,TRUE,3,3,TRUE,TRUE
3,3,shukuru,S65,context,Welke shukuru wil jij? Zowel de rode als de groene smaken lekker.,1,5.37586696395,22,1,FamiliarNoFit,6,TRUE,3,3,TRUE,FALSE
3,3,chunga,S73,retrieval,Deze muur werd gisteren geverfd. Wat vind je van de chunga?,1,11.2183507704,23,1,FamiliarNoFit,6,TRUE,3,3,TRUE,FALSE
3,3,simu,S100,retrieval,"Het is hier vies en smerig, er moet eindelijk iemand het simu opruimen!",1,4.55907949589,24,1,FamiliarNoFit,6,TRUE,3,3,TRUE,FALSE
3,3,maumiva,S40,context,Bij de begroeting geeft ze me een maumiva.,1,5.65090297966,25,1,FamiliarNoFit,6,TRUE,3,3,TRUE,FALSE
3,3,upinde,S99,retrieval,"Wanneer het regent en de zon schijnt, zoek ik altijd naar een upinde.",6,3.58384093776,26,1,FamiliarFit,6,TRUE,3,3,TRUE,TRUE
3,3,upinde,S99,retrieval,Deze stiften moeten opgeborgen worden in de upinde.,1,4.37571244247,27,2,UnfamiliarNoFit,6,TRUE,3,3,FALSE,FALSE
3,3,kidonda,S39,context,Zij zorgt dat de kidonda goed schoon is om ontstekingen te voorkomen.,6,12.4186194769,28,1,UnfamiliarFit,6,TRUE,3,3,FALSE,TRUE
3,3,kofia,S33,context,Ik draag een kofia tegen de zon.,6,2.59204555637,29,1,FamiliarFit,6,TRUE,3,3,TRUE,TRUE
3,3,barua,S93,context,De barua heeft veel schade veroorzaakt. Talloze bomen vielen om.,1,3.05886269422,30,1,FamiliarNoFit,6,TRUE,3,3,TRUE,FALSE
3,3,pamba,S98,context,Ze breit een sjaal van fijne pamba.,6,6.95942743275,31,1,FamiliarFit,6,TRUE,3,3,TRUE,TRUE
3,3,uchafu,S19,retrieval,De uchafu snort.,1,2.87532253237,32,1,FamiliarNoFit,6,TRUE,3,3,TRUE,FALSE
3,3,wazo,S107,retrieval,Het wazo voor zijn nieuwe boek kreeg hij tijdens het reizen.,5,5.62589657825,33,1,UnfamiliarFit,5,TRUE,2,2,FALSE,TRUE
3,3,saduku,S15,retrieval,Tijdens de optocht kwam er een mooie saduku voorbij.,2,7.38450712782,34,1,UnfamiliarNoFit,5,TRUE,2,2,FALSE,FALSE
3,3,baskeli,S55,context,De baskeli is een populair vervoersmiddel in Nederland.,6,4.02565528063,35,1,UnfamiliarFit,6,TRUE,3,3,FALSE,TRUE
3,3,mshangao,S77,retrieval,In het pakketje zit een mshangao voor hem.,5,5.55922070133,36,1,UnfamiliarFit,5,TRUE,2,2,FALSE,TRUE
3,3,fasihi,S70,retrieval,Het fasihi genoot van de zon.,3,25.562276731,37,1,UnfamiliarNoFit,4,TRUE,1,1,FALSE,FALSE
3,3,ndege,S96,retrieval,In haar ndege zitten zakken.,1,3.23388031716,38,2,UnfamiliarNoFit,6,TRUE,3,3,FALSE,FALSE
3,3,godoro,S87,retrieval,Kleine kinderen springen graag op een godoro.,6,9.20141499502,39,1,UnfamiliarFit,6,TRUE,3,3,FALSE,TRUE
3,3,mguu,S46,context,Ik schop de bal met mijn mguu.,6,3.55892247766,40,1,UnfamiliarFit,6,TRUE,3,3,FALSE,TRUE
3,3,chikiru,S45,retrieval,De chikiru zorgt voor zijn jongen.,6,11.1935130388,41,1,UnfamiliarFit,6,TRUE,3,3,FALSE,TRUE
3,3,keja,S27,retrieval,Het dak lag bezaaid met keja.,1,8.80133504333,42,1,UnfamiliarNoFit,6,TRUE,3,3,FALSE,FALSE
3,3,baridi,S94,context,In de baridi is de kans op kou en sneeuw groter.,6,5.0174695264,43,1,FamiliarFit,6,TRUE,3,3,TRUE,TRUE
3,3,dhoruba,S76,context,Wij kochten de dhoruba op de markt.,1,2.2919831652,44,2,UnfamiliarNoFit,6,TRUE,3,3,FALSE,FALSE
3,3,mchuma,S43,retrieval,Mijn mchuma past niet in deze kleine schoen.,1,4.61741842612,45,1,FamiliarNoFit,6,TRUE,3,3,TRUE,FALSE
3,3,mchuma,S43,retrieval,De papegaai speelt graag met een mchuma van zijn baasje.,1,7.61786035198,46,2,UnfamiliarNoFit,6,TRUE,3,3,FALSE,FALSE
3,3,maziwa,S41,retrieval,Ik doe wat maziwa in mijn koffie. Ik hou niet van zwarte koffie.,6,8.85140471671,47,1,FamiliarFit,6,TRUE,3,3,TRUE,TRUE
3,3,ufu,S34,retrieval,Iedereen reageerde geschokt op zijn ufu omdat hij zo plotseling is overleden.,6,4.03393008583,48,1,FamiliarFit,6,TRUE,3,3,TRUE,TRUE
3,3,maliki,S38,context,De maliki zit op zijn troon.,6,2.00866346694,49,1,FamiliarFit,6,TRUE,3,3,TRUE,TRUE
3,3,baskeli,S55,context,Ik ben aan mijn baskeli geopereerd.,1,2.88379735549,50,2,FamiliarNoFit,6,TRUE,3,3,TRUE,FALSE
3,3,maji,S49,context,Het maji is een uitvinding van afgelopen jaar.,1,4.52566956762,51,2,UnfamiliarNoFit,6,TRUE,3,3,FALSE,FALSE
3,3,ramani,S108,context,Wij hebben in de auto altijd een ramani liggen voor het geval dat het navigatie apparaat niet werkt.,6,7.09287683751,52,1,UnfamiliarFit,6,TRUE,3,3,FALSE,TRUE
3,3,ajabu,S58,context,De uitleg was duidelijk. Daardoor had niemand een ajabu.,2,6.63438083357,53,1,FamiliarNoFit,5,TRUE,2,2,TRUE,FALSE
3,3,koti,S91,context,Er zit een vlek op zijn koti.,5,32.4465914699,54,2,UnfamiliarFit,5,TRUE,2,2,FALSE,TRUE
3,3,chikiru,S45,retrieval,In het chikiru draait een toneelvoorstelling.,1,3.40888989499,55,2,FamiliarNoFit,6,TRUE,3,3,TRUE,FALSE
3,3,jibini,S92,retrieval,Hij was zo druk bezig met zijn opdracht dat hij niet niet in de gaten had dat de jibini voorbij liep.,1,7.17613561493,56,1,UnfamiliarNoFit,6,TRUE,3,3,FALSE,FALSE
3,3,tumaini,S12,retrieval,De chauffeur van de tumaini stopt alleen als er iemand bij de halte staat.,1,3.90892249153,57,2,FamiliarNoFit,6,TRUE,3,3,TRUE,FALSE
3,3,barua,S93,context,Ik heb een barua gekregen van mijn neefje.,5,18.2278426056,58,2,UnfamiliarFit,5,TRUE,2,2,FALSE,TRUE
3,3,likizo,S35,retrieval,Tijdens de wandeling zag hij een mooie likizo.,1,3.6755953446,59,1,UnfamiliarNoFit,6,TRUE,3,3,FALSE,FALSE
3,3,barafu,S37,context,Kijk eens door het raam! Daar staat een barafu.,1,3.77559958909,60,2,UnfamiliarNoFit,6,TRUE,3,3,FALSE,FALSE
3,3,bamba,S47,context,In dit bamba kun je ook groenten kopen.,1,10.4516188274,61,1,UnfamiliarNoFit,6,TRUE,3,3,FALSE,FALSE
3,3,pombe,S31,retrieval,"De pombe is vol met sterren, mooi!",1,2.3254175062,62,1,FamiliarNoFit,6,TRUE,3,3,TRUE,FALSE
3,3,tabibu,S10,context,Hongarije kun je vinden op de tabibu.,1,3.30888620534,63,2,FamiliarNoFit,6,TRUE,3,3,TRUE,FALSE
3,3,rangi,S2,context,Geef de rangi niet op! Ik weet dat je het kunt!,1,3.7672834487,64,1,FamiliarNoFit,6,TRUE,3,3,TRUE,FALSE
3,3,anga,S59,context,Ik hoop dat ik naar de anga ga.,6,4.10892876116,65,1,UnfamiliarFit,6,TRUE,3,3,FALSE,TRUE
3,3,mbwa,S42,context,In het park zag ik een mooie mwba.,6,5.10907745687,66,1,UnfamiliarFit,6,TRUE,3,3,FALSE,TRUE
3,3,taa,S97,retrieval,De man heeft last van taa wanneer zijn vrouw met andere mannen praat.,1,2.73381304344,67,1,FamiliarNoFit,6,TRUE,3,3,TRUE,FALSE
3,3,ndege,S96,retrieval,"Dat de koningin hem feliciteerde, vond hij een bijzondere ndege.",1,3.98391478626,68,3,FamiliarNoFit,6,TRUE,3,3,TRUE,FALSE
3,3,wingu,S17,retrieval,Uit de schoorsteen komt een dikke zwarte wingu.,5,4.592429502,69,1,UnfamiliarFit,5,TRUE,2,2,FALSE,TRUE
3,3,mchezo,S89,context,Ze doen graag een mchezo waarbij een van de kinderen zijn vrienden moet vangen.,6,8.30956892948,70,1,FamiliarFit,6,TRUE,3,3,TRUE,TRUE
3,3,likizo,S35,retrieval,Ik heb de likizo met je spullen op de zolder gezet.,1,2.87548648603,71,2,FamiliarNoFit,6,TRUE,3,3,TRUE,FALSE
3,3,tunda,S66,retrieval,Tunda is erg gezond. Het bevat veel vitamines.,6,8.20121525452,72,1,UnfamiliarFit,6,TRUE,3,3,FALSE,TRUE
3,3,jibini,S92,retrieval,Zijn jibini heeft twee lekke banden.,1,2.59210908495,73,2,FamiliarNoFit,6,TRUE,3,3,TRUE,FALSE
3,3,adhama,S4,retrieval,In de speeltuin staat een adhama.,1,4.47570753219,74,1,UnfamiliarNoFit,6,TRUE,3,3,FALSE,FALSE
3,3,farasi,S81,context,"Omdat ik bijziend ben, draag ik een farasi.",1,4.82570116546,75,1,FamiliarNoFit,6,TRUE,3,3,TRUE,FALSE
3,3,swali,S22,retrieval,De uitleg was duidelijk. Daardoor had niemand een swali.,5,6.11755422192,76,1,FamiliarFit,5,TRUE,2,2,TRUE,TRUE
3,3,wingu,S17,retrieval,Ik vind het heel erg dat ik mijn wingu kwijt ben.,1,4.00064416312,77,2,UnfamiliarNoFit,6,TRUE,3,3,FALSE,FALSE
3,3,saduku,S15,retrieval,Ik heb de saduku met je spullen op de zolder gezet.,6,1.94200506731,78,2,FamiliarFit,6,TRUE,3,3,TRUE,TRUE
3,3,kioo,S30,retrieval,Ik kan mijn outfit bekijken in de kioo.,6,2.83380841057,79,1,FamiliarFit,6,TRUE,3,3,TRUE,TRUE
3,3,moto,S21,context,Spelen met moto is gevaarlijk omdat je jezelf kunt verbranden.,6,2.52543653703,80,1,UnfamiliarFit,6,TRUE,3,3,FALSE,TRUE
3,3,mkono,S48,context,Zijn mkono zit in het gips.,6,5.38410958874,81,1,UnfamiliarFit,6,TRUE,3,3,FALSE,TRUE
3,3,mkate,S25,retrieval,Hij stootte zijn mkate tegen de deurpost. Daarom loopt hij nu op krukken.,1,9.27645084428,82,1,UnfamiliarNoFit,6,TRUE,3,3,FALSE,FALSE
3,3,mbwa,S42,context,Ik weet niets over mwba. Wat is het verschil tussen jazz en rock?,1,4.33404740563,83,2,FamiliarNoFit,6,TRUE,3,3,TRUE,FALSE
3,3,tabibu,S10,context,Hij stopte zijn geld in zijn tabibu.,1,3.78386523952,84,3,UnfamiliarNoFit,6,TRUE,3,3,FALSE,FALSE
3,3,wimbo,S16,context,Zij kon geen wimbo meenemen. Het paste niet meer in haar tas.,1,2.65871976879,85,1,UnfamiliarNoFit,6,TRUE,3,3,FALSE,FALSE
3,3,uchafu,S19,retrieval,"Het is hier vies en smerig, er moet eindelijk iemand het uchafu opruimen!",6,3.30046298184,86,2,FamiliarFit,6,TRUE,3,3,TRUE,TRUE
3,3,bibi,S67,retrieval,De bibi lag op de vensterbank te drogen.,1,3.73394453928,87,1,UnfamiliarNoFit,6,TRUE,3,3,FALSE,FALSE
3,3,askari,S61,retrieval,Zij ging hengelen en hoopte op een askari.,5,5.42586339913,88,1,FamiliarNoFit,2,FALSE,2,,TRUE,FALSE
3,3,mkate,S25,retrieval,Vers mkate is het lekkerst.,5,3.38390097088,89,2,UnfamiliarFit,5,TRUE,2,2,FALSE,TRUE
3,3,maliki,S38,context,Hij stuurde zijn zusje naar de supermarkt om maliki te halen.,1,2.75870792307,90,2,UnfamiliarNoFit,6,TRUE,3,3,FALSE,FALSE
3,3,lugha,S36,retrieval,In deze lugha zitten veel mooie klanken.,5,5.55923290769,91,1,FamiliarFit,5,TRUE,2,2,TRUE,TRUE
3,3,askari,S61,retrieval,Natuurlijk nam ik tijdens mijn reis mijn askari mee.,1,3.05049162519,92,2,UnfamiliarNoFit,6,TRUE,3,3,FALSE,FALSE
3,3,nyanya,S51,retrieval,Zondag ochtend gaan wij met de hele familie naar de nyanya.,1,5.25909394933,93,1,FamiliarNoFit,6,TRUE,3,3,TRUE,FALSE
3,3,chanjo,S71,context,In de hobbykist zit een scherpe chanjo.,6,3.12544341698,94,2,UnfamiliarFit,6,TRUE,3,3,FALSE,TRUE
3,3,rangi,S2,context,Deze muur werd gisteren geverfd.Wat vind je van de rangi?,6,3.85890247587,95,2,FamiliarFit,6,TRUE,3,3,TRUE,TRUE
3,3,wivu,S56,context,In de prachtige blauwe hemel is geen wivu te zien.,1,2.91708133628,96,2,FamiliarNoFit,6,TRUE,3,3,TRUE,FALSE
3,3,harufu,S101,context,Wat een lekkere harufu. Wat ben jij aan het bakken?,6,4.20893994108,97,1,FamiliarFit,6,TRUE,3,3,TRUE,TRUE
3,3,duka,S78,context,In deze duka koop ik graag mijn zomerkleding.,5,12.2269010511,98,1,FamiliarFit,5,TRUE,2,2,TRUE,TRUE
3,3,panya,S53,retrieval,De panya piept.,6,2.51699528141,99,2,UnfamiliarFit,6,TRUE,3,3,FALSE,TRUE
3,3,lugha,S36,retrieval,De blinde man hoorde dat Jezus er was. Hij hoopte op een lugha,1,2.8170659951,100,2,FamiliarNoFit,6,TRUE,3,3,TRUE,FALSE
3,3,dhoruba,S76,context,De dhoruba heeft veel schade veroorzaakt. Talloze bomen vielen om.,6,2.33373614335,101,3,FamiliarFit,6,TRUE,3,3,TRUE,TRUE
3,3,pamba,S98,context,We zingen enthousiast mee met het pamba.,1,4.10901365088,102,2,FamiliarNoFit,6,TRUE,3,3,TRUE,FALSE
3,3,hasira,S57,context,Zorg dat je hasira is bekoeld voordat je deze belangrijke beslissing neemt!,6,4.85909860994,103,1,UnfamiliarFit,6,TRUE,3,3,FALSE,TRUE
3,3,kumbukumbu,S18,retrieval,Na haar hersenbloeding heeft zij problemen met haar kumbukumbu.,6,4.08390432763,104,1,UnfamiliarFit,6,TRUE,3,3,FALSE,TRUE
3,3,wimbo,S16,context,Hij heeft een nieuw wimbo geschreven.,6,3.22553504794,105,2,UnfamiliarFit,6,TRUE,3,3,FALSE,TRUE
3,3,hasira,S57,context,Ik heb een helm op mijn hasira.,1,2.95040138132,106,2,FamiliarNoFit,6,TRUE,3,3,TRUE,FALSE
3,3,pamba,S98,context,Langs de snelweg zie je altijd veel pamba.,1,6.67596403228,107,3,UnfamiliarNoFit,6,TRUE,3,3,FALSE,FALSE
3,3,kaputula,S74,context,Deze stof is erg geschikt voor het maken van een kaputula.,6,2.61702560313,108,2,UnfamiliarFit,6,TRUE,3,3,FALSE,TRUE
3,3,adhama,S4,retrieval,Hij zou alles doen om de adhama van zijn familie te redden.,6,2.10859835708,109,2,UnfamiliarFit,6,TRUE,3,3,FALSE,TRUE
3,3,wazo,S107,retrieval,Het mooie licht in de woonkamer komt van de wazo.,1,3.52558412307,110,2,FamiliarNoFit,6,TRUE,3,3,TRUE,FALSE
3,3,bustani,S68,context,Iedereen reageerde geschokt op zijn bustani omdat hij zo plotseling is overleden.,1,3.00876666619,111,1,FamiliarNoFit,6,TRUE,3,3,TRUE,FALSE
3,3,chunga,S73,retrieval,Er staat een chunga in haar keukenkastje.,6,5.38418782043,112,2,UnfamiliarFit,6,TRUE,3,3,FALSE,TRUE
3,3,funguo,S60,context,"Mijn hartelijke funguo, je hebt me zeer geholpen.",1,11.6184870378,113,1,FamiliarNoFit,6,TRUE,3,3,TRUE,FALSE
3,3,kijana,S29,retrieval,De kijana speelt graag met auto's.,6,4.06720158283,114,1,FamiliarFit,6,TRUE,3,3,TRUE,TRUE
3,3,dunia,S79,context,De dunia is rond.,6,3.98387567041,115,1,UnfamiliarFit,6,TRUE,3,3,FALSE,TRUE
3,3,rangi,S2,context,"Als hij zich verveelt, gaat hij soms naar de rangi.",1,1.88367057575,116,3,UnfamiliarNoFit,6,TRUE,3,3,FALSE,FALSE
3,3,taa,S97,retrieval,Deze taa is haar favoriete kledingstuk.,1,2.91714292293,117,2,UnfamiliarNoFit,6,TRUE,3,3,FALSE,FALSE
3,3,harufu,S101,context,In de stal lag veel harufu.,1,7.80123323116,118,2,UnfamiliarNoFit,6,TRUE,3,3,FALSE,FALSE
3,3,skati,S9,retrieval,Ik draag in de zomer liever een skati dan een broek.,6,2.07528524747,119,1,UnfamiliarFit,6,TRUE,3,3,FALSE,TRUE
3,3,samaki,S5,context,Zij ging hengelen en hoopte op een samaki.,6,7.32607692728,120,1,FamiliarFit,6,TRUE,3,3,TRUE,TRUE
3,3,mchoro,S95,context,Bij het scrabble spel moet je steeds een mchoro verzinnen.,1,10.1182569201,121,1,FamiliarNoFit,6,TRUE,3,3,TRUE,FALSE
3,3,pombe,S31,retrieval,De studenten drinken pombe.,6,2.20872577488,122,2,UnfamiliarFit,6,TRUE,3,3,FALSE,TRUE
3,3,siri,S8,retrieval,Ik kan mijn outfit bekijken in de siri.,1,2.26697149287,123,2,FamiliarNoFit,6,TRUE,3,3,TRUE,FALSE
3,3,moto,S21,context,Tegen de muur staat een moto.,1,3.56718812809,124,2,UnfamiliarNoFit,6,TRUE,3,3,FALSE,FALSE
3,3,mchuma,S43,retrieval,Het is verboden om zomaar een mchuma te kopen.,6,2.24204831667,125,3,UnfamiliarFit,6,TRUE,3,3,FALSE,TRUE
3,3,maumiva,S40,context,Zijn kleine zusje is verliefd op haar maumiva.,1,4.25060608759,126,2,UnfamiliarNoFit,6,TRUE,3,3,FALSE,FALSE
3,3,kamba,S23,retrieval,Wat een uitbarsting van kamba! Kijk hoe ze met haar voet stampt en gilt.,2,9.6264308841,127,1,FamiliarNoFit,5,TRUE,2,2,TRUE,FALSE
3,3,keja,S27,retrieval,Het keja wordt goed onderhouden.,5,8.7930405415,128,2,UnfamiliarFit,5,TRUE,2,2,FALSE,TRUE
3,3,panya,S53,retrieval,We vinden het gezellig om samen met veel vrienden te eten. Gelukkig is onze panya hiervoor nu groot genoeg.,1,8.06779497858,129,3,FamiliarNoFit,6,TRUE,3,3,TRUE,FALSE
3,3,farasi,S81,context,Er staat een farasi in de wei.,6,3.38358526992,130,2,UnfamiliarFit,6,TRUE,3,3,FALSE,TRUE
3,3,tunda,S66,retrieval,"Zij vinden het tweede tunda het leukst, omdat deze een eigen tuin en meer woonruimte heeft.",1,4.76728760996,131,2,FamiliarNoFit,6,TRUE,3,3,TRUE,FALSE
3,3,ukumbi,S109,retrieval,In het ukumbi draait een toneelvoorstelling.,6,2.40854478778,132,1,FamiliarFit,6,TRUE,3,3,TRUE,TRUE
3,3,bustani,S68,context,Bij mooi weer zit de oude dame vaak in de bustani.,6,4.60878325576,133,2,UnfamiliarFit,6,TRUE,3,3,FALSE,TRUE
3,3,meza,S44,context,We vinden het gezellig om samen met veel vrienden te eten. Gelukkig is onze meza hiervoor nu groot genoeg.,6,4.11725877242,134,2,FamiliarFit,6,TRUE,3,3,TRUE,TRUE
3,3,godoro,S87,retrieval,"Niemand weet dat. Wat ze vroeger deed, behoort tot het godoro.",1,3.58384815061,135,2,FamiliarNoFit,6,TRUE,3,3,TRUE,FALSE
3,3,simu,S100,retrieval,Mijn nieuwe simu maakt hele mooie foto's.,6,3.85054777446,136,2,UnfamiliarFit,6,TRUE,3,3,FALSE,TRUE
3,3,paka,S52,retrieval,De studenten spreken vaak in de paka af.,1,2.30866121985,137,2,UnfamiliarNoFit,6,TRUE,3,3,FALSE,FALSE
3,3,fumbo,S84,retrieval,"Kijk, hij draagt groene sokken onder de fumbo.",1,6.94274743618,138,1,FamiliarNoFit,6,TRUE,3,3,TRUE,FALSE
3,3,flava,S83,retrieval,De flava is goed schoongemaakt.,1,2.93381681632,139,1,UnfamiliarNoFit,6,TRUE,3,3,FALSE,FALSE
3,3,sauti,S6,retrieval,Door de intercom klinkt een sauti.,6,3.0838399668,140,2,UnfamiliarFit,6,TRUE,3,3,FALSE,TRUE
3,3,flava,S83,retrieval,Zijn flava is zo goed dat hij 100 spelkaarten kan onthouden.,1,2.4836566494,141,2,FamiliarNoFit,6,TRUE,3,3,TRUE,FALSE
3,3,funguo,S60,context,"Wat stom, hij heeft zijn funguo op het werk laten liggen.",5,6.49262666253,142,2,UnfamiliarFit,5,TRUE,2,2,FALSE,TRUE
3,3,maumiva,S40,context,De verdoving hielp tegen de maumiva.,6,2.48366303,143,3,FamiliarFit,6,TRUE,3,3,TRUE,TRUE
3,3,mchoro,S95,context,Ik kocht een mchoro op de veiling. Hij hangt nu aan de muur.,5,5.38417783341,144,2,UnfamiliarFit,5,TRUE,2,2,FALSE,TRUE
3,3,tumaini,S12,retrieval,Geef de tumaini niet op! Ik weet dat je het kunt!,6,4.73409850591,145,3,FamiliarFit,6,TRUE,3,3,TRUE,TRUE
3,3,samaki,S5,context,Hij had zijn laptop voor zich staan op de samaki en was druk aan het werk.,1,2.62544216861,146,2,UnfamiliarNoFit,6,TRUE,3,3,FALSE,FALSE
3,3,farasi,S81,context,De man had zichzelf buiten gesloten. Gelukkig was zijn farasi thuis.,1,2.45868270583,147,3,UnfamiliarNoFit,6,TRUE,3,3,FALSE,FALSE
3,3,anga,S59,context,Ik wil het niet vertellen. Het is een anga.,1,2.45866800271,148,2,FamiliarNoFit,6,TRUE,3,3,TRUE,FALSE
3,3,kamba,S23,retrieval,Het kamba hield een leuke toespraak.,2,8.98466741958,149,2,UnfamiliarNoFit,5,TRUE,2,2,FALSE,FALSE
3,3,degaga,S64,retrieval,"Omdat ik bijziend ben, draag ik een degaga.",6,1.73370041199,150,1,FamiliarFit,6,TRUE,3,3,TRUE,TRUE
3,3,jibini,S92,retrieval,Gouda is lekkere jibini.,5,4.27569044328,151,3,FamiliarFit,5,TRUE,2,2,TRUE,TRUE
3,3,flava,S83,retrieval,Op dit festival spelen ze erg mooie flava.,6,3.21703858626,152,3,UnfamiliarFit,6,TRUE,3,3,FALSE,TRUE
3,3,maji,S49,context,De maji speelt graag met auto's.,1,1.69197573042,153,3,FamiliarNoFit,6,TRUE,3,3,TRUE,FALSE
3,3,bamba,S47,context,Dit bamba is een erfstuk. Het is gemaakt van porselein en heeft een randje uit goud.,6,3.36713636201,154,2,UnfamiliarFit,6,TRUE,3,3,FALSE,TRUE
3,3,goti,S88,context,"Als ik 's avonds het huis uit ga, doe ik mijn goti aan.",1,2.21697450285,155,2,UnfamiliarNoFit,6,TRUE,3,3,FALSE,FALSE
3,3,askari,S61,retrieval,Ik ben na de diefstal van mijn handtas meteen naar de askari gegaan.,6,2.64210607497,156,3,FamiliarFit,6,TRUE,3,3,TRUE,TRUE
3,3,ufu,S34,retrieval,Ik heb de ufu in de hoek gezet. Hij past goed bij het interieur.,1,1.95033979466,157,2,UnfamiliarNoFit,6,TRUE,3,3,FALSE,FALSE
3,3,kamba,S23,retrieval,Ze heeft de houten blokken met een kamba verbonden.,6,3.15045370223,158,3,FamiliarFit,6,TRUE,3,3,TRUE,TRUE
3,3,tunda,S66,retrieval,Het tunda geeft een mooi geluid.,1,2.22538024905,159,3,UnfamiliarNoFit,6,TRUE,3,3,FALSE,FALSE
3,3,kichwa,S28,context,Ik heb een helm op mijn kichwa.,5,5.06738218154,160,1,FamiliarFit,5,TRUE,2,2,TRUE,TRUE
3,3,kichwa,S28,context,De kichwa blaft hard.,1,1.25858183687,161,2,FamiliarNoFit,6,TRUE,3,3,TRUE,FALSE
3,3,keja,S27,retrieval,"Als er golven zijn, kun je hier prima op de keja surfen.",1,4.0672537373,162,3,FamiliarNoFit,6,TRUE,3,3,TRUE,FALSE
3,3,kiti,S32,retrieval,In de garage staat een oude kiti.,5,5.08409352627,163,1,UnfamiliarFit,5,TRUE,2,2,FALSE,TRUE
3,3,bibi,S67,retrieval,Dit is de bibi van het meisje. Ik denk dat zij de moeder is van haar moeder.,6,3.27554840559,164,2,FamiliarFit,6,TRUE,3,3,TRUE,TRUE
3,3,memo,S50,context,Het jonge kind en zijn memo zijn onafscheidelijk.,1,1.57520521256,165,2,UnfamiliarNoFit,6,TRUE,3,3,FALSE,FALSE
3,3,duka,S78,context,De verdoving hielp tegen de duka.,1,1.67530488862,166,2,FamiliarNoFit,6,TRUE,3,3,TRUE,FALSE
3,3,tofaa,S11,retrieval,Bij de fruitkraam krijgt vandaag ieder kind een tofaa mee voor onderweg.,6,2.79206791621,167,1,UnfamiliarFit,6,TRUE,3,3,FALSE,TRUE
3,3,fasihi,S70,retrieval,Iedere woensdagmiddag gaat zij naar de bibliotheek en leent zij een nieuw fasihi.,6,5.17575915956,168,2,FamiliarFit,6,TRUE,3,3,TRUE,TRUE
3,3,shukuru,S65,context,Dit is een uiting van haar shukuru.,6,2.53374574199,169,2,UnfamiliarFit,6,TRUE,3,3,FALSE,TRUE
3,3,skati,S9,retrieval,Skati is een gemoedstoestand.,1,1.39183510756,170,2,UnfamiliarNoFit,6,TRUE,3,3,FALSE,FALSE
3,3,mwandani,S3,context,Ik onderneem veel samen met mijn mwandani en ik kan altijd op hem vertrouwen.,6,4.60900518965,171,1,FamiliarFit,6,TRUE,3,3,TRUE,TRUE
3,3,nyanya,S51,retrieval,Door de warmte is haar hoofd zo rood als een nyanya.,6,1.60021743973,172,2,FamiliarFit,6,TRUE,3,3,TRUE,TRUE
3,3,likizo,S35,retrieval,Volgende week begint de likizo. Wij gaan dan met de caravan weg.,6,1.79197442656,173,3,UnfamiliarFit,6,TRUE,3,3,FALSE,TRUE
3,3,skati,S9,retrieval,Ik ben na de diefstal van mijn handtas meteen naar de skati gegaan.,1,1.8001188456,174,3,FamiliarNoFit,6,TRUE,3,3,TRUE,FALSE
3,3,zamani,S54,context,"Niemand weet dat. Wat ze vroeger deed, behoort tot het zamani.",6,2.72539370379,175,2,FamiliarFit,6,TRUE,3,3,TRUE,TRUE
3,3,tumbili,S13,retrieval,De tumbili klimt behendig in de palmboom.,6,2.6837597377,176,2,FamiliarFit,6,TRUE,3,3,TRUE,TRUE
3,3,baba,S104,retrieval,De jongen lijkt op zijn baba.,6,2.34205422566,177,1,UnfamiliarFit,6,TRUE,3,3,FALSE,TRUE
3,3,bahari,S63,context,Er zijn weer vluchtelingen gered op de bahari.,6,2.68377000214,178,1,UnfamiliarFit,6,TRUE,3,3,FALSE,TRUE
3,3,taa,S97,retrieval,Het mooie licht in de woonkamer komt van de taa.,6,2.90875298952,179,3,FamiliarFit,6,TRUE,3,3,TRUE,TRUE
3,3,mbwa,S42,context,De mbwa kan niet tegen warmte. Dan krimpt hij.,1,4.45897843274,180,3,UnfamiliarNoFit,6,TRUE,3,3,FALSE,FALSE
3,3,jioni,S20,retrieval,Hij stopt de jioni in de brievenbus.,2,12.4935199464,181,1,FamiliarNoFit,5,TRUE,2,2,TRUE,FALSE
3,3,wakati,S62,context,Ik ga graag naar de wakati. Er is altijd iets te zien.,1,14.0354572684,182,1,UnfamiliarNoFit,6,TRUE,3,3,FALSE,FALSE
3,3,lango,S7,context,De lango besteed veel aandacht aan zijn haar.,1,1.6668780587,183,1,UnfamiliarNoFit,6,TRUE,3,3,FALSE,FALSE
3,3,bamba,S47,context,Wat een goed bamba om dit te gaan doen.,1,3.35879691856,184,3,FamiliarNoFit,6,TRUE,3,3,TRUE,FALSE
3,3,wimbo,S16,context,We doen de pasta in een wimbo.,1,1.69188418269,185,3,FamiliarNoFit,6,TRUE,3,3,TRUE,FALSE
3,3,mit,S82,retrieval,Ik kan niet wachten totdat de mit gegroeid is en appels draagt.,6,5.24250439082,186,1,FamiliarFit,6,TRUE,3,3,TRUE,TRUE
3,3,kiti,S32,retrieval,Op de kiti bestaat leven.,1,3.00041723572,187,2,FamiliarNoFit,6,TRUE,3,3,TRUE,FALSE
3,3,odare,S1,context,"Nee, in de vakantie gaan de kinderen niet naar hun odare.",6,2.4754409341,188,1,FamiliarFit,6,TRUE,3,3,TRUE,TRUE
3,3,wakati,S62,context,Hij komt s'ochtends altijd te laat. Misschien moeten we hem een wakati cadeau geven.,6,3.55891748415,189,2,UnfamiliarFit,6,TRUE,3,3,FALSE,TRUE
3,3,kanisa,S24,retrieval,Zondag ochtend gaan wij met de hele familie naar de kanisa.,6,3.28380490124,190,1,FamiliarFit,6,TRUE,3,3,TRUE,TRUE
3,3,fumbo,S84,retrieval,In de kerstvakantie maken wij een fumbo.,5,9.1846767408,191,2,UnfamiliarFit,5,TRUE,2,2,FALSE,TRUE
3,3,keza,S14,context,Mijn keza bevat veel verschillende arbeidstaken.,6,4.26727637455,192,1,FamiliarFit,6,TRUE,3,3,TRUE,TRUE
3,3,kitanda,S26,retrieval,Ze is moe en wil graag naar kitanda.,6,2.4503260625,193,1,FamiliarFit,6,TRUE,3,3,TRUE,TRUE
3,3,odare,S1,context,Iedere woensdagmiddag gaat zij naar de bibliotheek en leent zij een nieuw odare.,1,3.40890043685,194,2,FamiliarNoFit,6,TRUE,3,3,TRUE,FALSE
3,3,ajabu,S58,context,De blinde man hoorde dat Jezus er was. Hij hoopte op een ajabu.,6,2.79204710991,195,2,FamiliarFit,6,TRUE,3,3,TRUE,TRUE
3,3,lango,S7,context,De hond staat bij de lango omdat hij met mij naar buiten wil.,6,3.15895515743,196,2,FamiliarFit,6,TRUE,3,3,TRUE,TRUE
3,3,swali,S22,retrieval,Aan de overkant van de straat zag zij een swali.,1,3.55039050656,197,2,UnfamiliarNoFit,6,TRUE,3,3,FALSE,FALSE
3,3,siri,S8,retrieval,Ik wil het niet vertellen. Het is een siri.,6,2.18361034845,198,3,FamiliarFit,6,TRUE,3,3,TRUE,TRUE
3,3,dunia,S79,context,Deze dunia brengt je vrijwel overal naar toe.,1,2.66706503801,199,2,UnfamiliarNoFit,6,TRUE,3,3,FALSE,FALSE
3,3,jioni,S20,retrieval,Ze hebben maar een enkele vrije jioni deze week.,6,1.83358453476,200,2,UnfamiliarFit,6,TRUE,3,3,FALSE,TRUE
3,3,maji,S49,context,Zijn nichtje speelt graag met maji.,5,2.47559101689,201,4,UnfamiliarFit,5,TRUE,2,2,FALSE,TRUE
3,3,mshangao,S77,retrieval,De mshangao klimt behendig in de palmboom.,1,2.442065683,202,2,FamiliarNoFit,6,TRUE,3,3,TRUE,FALSE
3,3,saduku,S15,retrieval,Zij bewaart haar liefdesbrieven in een saduku.,6,4.46739416597,203,3,UnfamiliarFit,6,TRUE,3,3,FALSE,TRUE
3,3,bibi,S67,retrieval,Wie geeft de bloemen in de bibi water terwijl wij op vakantie zijn?,1,2.04193246718,204,3,FamiliarNoFit,6,TRUE,3,3,TRUE,FALSE
3,3,bamba,S47,context,Kijk eens naar haar bamba! Hoe kan zij zoveel eten?,6,4.34229141751,205,4,FamiliarFit,6,TRUE,3,3,TRUE,TRUE
3,3,lango,S7,context,Ze doen graag een lango waarbij een van de kinderen zijn vrienden moet vangen.,1,6.9926917169,206,3,FamiliarNoFit,6,TRUE,3,3,TRUE,FALSE
3,3,barafu,S37,context,Let op dat je niet uitglijdt. Er ligt barafu op de fietspaden.,6,2.59202752424,207,3,UnfamiliarFit,6,TRUE,3,3,FALSE,TRUE
3,3,kitanda,S26,retrieval,Geef je me een kitanda zodat ik plaatjse kan uitknippen?,1,4.06725845339,208,2,FamiliarNoFit,6,TRUE,3,3,TRUE,FALSE
3,3,kijana,S29,retrieval,Onze buren hebben een nieuwe kast om hun kijana op te ruimen.,2,21.3783062948,209,2,UnfamiliarNoFit,5,TRUE,2,2,FALSE,FALSE
3,3,baba,S104,retrieval,Hij en zijn broer hebben hun baba verloren.,6,3.76720493958,210,2,FamiliarFit,6,TRUE,3,3,TRUE,TRUE
3,3,kumbukumbu,S18,retrieval,In de straat liep een kumbukumbu.,1,2.3087513805,211,2,UnfamiliarNoFit,6,TRUE,3,3,FALSE,FALSE
3,3,mchezo,S89,context,Dit mchezo is behoorlijk saai.,6,3.65059116254,212,2,UnfamiliarFit,6,TRUE,3,3,FALSE,TRUE
3,3,kanisa,S24,retrieval,De kanisa uit de moestuin van je moeder was super lekker!,1,3.32555066654,213,2,UnfamiliarNoFit,6,TRUE,3,3,FALSE,FALSE
3,3,moto,S21,context,Ik onderneem veel samen met mijn moto en ik kan altijd op hem vertrouwen.,1,2.49201745399,214,3,FamiliarNoFit,6,TRUE,3,3,TRUE,FALSE
3,3,adhama,S4,retrieval,De hond staat bij de adhama omdat hij met mij naar buiten wil.,1,1.85024760887,215,3,FamiliarNoFit,6,TRUE,3,3,TRUE,FALSE
3,3,mit,S82,retrieval,Hij heeft de mit opgelost.,1,2.28365315394,216,2,FamiliarNoFit,6,TRUE,3,3,TRUE,FALSE
3,3,barafu,S37,context,"Wanneer het regent en de zon schijnt, zoek ik altijd naar een barafu.",1,2.45875455693,217,4,FamiliarNoFit,6,TRUE,3,3,TRUE,FALSE
3,3,kofia,S33,context,Ik word iedere dag wakker door het ratelen van mijn kofia.,1,3.2171126567,218,2,FamiliarNoFit,6,TRUE,3,3,TRUE,FALSE
3,3,uchafu,S19,retrieval,Wie zet morgen het uchafu buiten?,6,2.08362691026,219,3,UnfamiliarFit,6,TRUE,3,3,FALSE,TRUE
3,3,ufu,S34,retrieval,Veel mensen zijn bang voor de ufu.,6,2.25038526337,220,3,UnfamiliarFit,6,TRUE,3,3,FALSE,TRUE
3,3,tofaa,S11,retrieval,Ik doe wat tofaa in mijn koffie. Ik hou niet van zwarte koffie.,1,2.29204724861,221,2,FamiliarNoFit,6,TRUE,3,3,TRUE,FALSE
3,3,koti,S91,context,Het is koud buiten. Denk aan je koti.,6,3.17544789727,222,3,FamiliarFit,6,TRUE,3,3,TRUE,TRUE
3,3,lugha,S36,retrieval,Hij zat gezellig samen in het park met zijn lugha.,1,2.21705828289,223,3,UnfamiliarNoFit,6,TRUE,3,3,FALSE,FALSE
3,3,maliki,S38,context,De maliki brengt een bezoek aan het zuiden van het land.,5,3.03375669998,224,3,UnfamiliarFit,5,TRUE,2,2,FALSE,TRUE
3,3,kitanda,S26,retrieval,Ons nieuwe kitanda is van de Ikea.,6,2.17538686545,225,3,UnfamiliarFit,6,TRUE,3,3,FALSE,TRUE
3,3,sauti,S6,retrieval,Hij is schor en heeft last van zijn sauti.,6,1.80856759149,226,3,FamiliarFit,6,TRUE,3,3,TRUE,TRUE
3,3,swali,S22,retrieval,Door de warmte is haar hoofd zo rood als een swali.,1,1.90023877313,227,3,FamiliarNoFit,6,TRUE,3,3,TRUE,FALSE
3,3,nyanya,S51,retrieval,In de kas groeit een nyanya.,6,1.93358406315,228,3,UnfamiliarFit,6,TRUE,3,3,FALSE,TRUE
3,3,degaga,S64,retrieval,Tijdens de uitverkoop heb ik deze nieuwe degaga gekocht.,6,1.83360007013,229,2,UnfamiliarFit,6,TRUE,3,3,FALSE,TRUE
3,3,chikiru,S45,retrieval,"In de tuin hebben we een huisje met voer. Kijk, er zit een chikiru te eten!",6,2.4337734005,230,3,FamiliarFit,6,TRUE,3,3,TRUE,TRUE
3,3,upinde,S99,retrieval,Het is koud buiten. Denk aan je upinde.,1,1.56685300791,231,3,FamiliarNoFit,6,TRUE,3,3,TRUE,FALSE
3,3,siri,S8,retrieval,Het is geen siri dat zij een plastische ingreep heeft gehad.,6,2.08361997483,232,4,UnfamiliarFit,6,TRUE,3,3,FALSE,TRUE
3,3,kioo,S30,retrieval,We kunnen pas douchen en afwassen wanneer er weer kioo is.,1,1.80029056695,233,2,FamiliarNoFit,6,TRUE,3,3,TRUE,FALSE
3,3,kioo,S30,retrieval,De kioo is gebroken.,6,2.41697605639,234,3,UnfamiliarFit,6,TRUE,3,3,FALSE,TRUE
3,3,kichwa,S28,context,Zij zette ter voorbereiding haar kichwa alvast bij de deur.,2,5.43412266896,235,3,UnfamiliarNoFit,5,TRUE,2,2,FALSE,FALSE
3,3,pamba,S98,context,Ze draagt de trui niet graag omdat de pamba kriebelt op haar huid.,6,2.08362330384,236,4,UnfamiliarFit,6,TRUE,3,3,FALSE,TRUE
3,3,koti,S91,context,"In de tuin hebben we een huisje met voer. Kijk, er zit een koti te eten!",1,2.10860529251,237,4,FamiliarNoFit,6,TRUE,3,3,TRUE,FALSE
3,3,jioni,S20,retrieval,"Ja, het is donker in de jioni. De schemering valt nu al in de namiddag.",6,3.86721334533,238,3,FamiliarFit,6,TRUE,3,3,TRUE,TRUE
3,3,paka,S52,retrieval,Ze heeft de houten blokken met een paka verbonden.,1,4.00058812482,239,3,FamiliarNoFit,6,TRUE,3,3,TRUE,FALSE
3,3,mkate,S25,retrieval,Ik ga even naar de bakker om mkate te halen.,6,2.09201934043,240,3,FamiliarFit,6,TRUE,3,3,TRUE,TRUE
3,3,baridi,S94,context,Ze is moe en wil graag naar baridi.,1,3.81722689717,241,2,FamiliarNoFit,6,TRUE,3,3,TRUE,FALSE
3,3,ajabu,S58,context,Bij de Intratuin hebben ze een leuke ajabu in de aanbieding.,1,2.81714894289,242,3,UnfamiliarNoFit,6,TRUE,3,3,FALSE,FALSE
3,3,mchoro,S95,context,Jammer dat dit mchoro alleen donkere kleuren en trieste motieven heeft.,6,4.21727744261,243,3,FamiliarFit,6,TRUE,3,3,TRUE,TRUE
3,3,lango,S7,context,De schilder heeft gisteren de lango geschilderd.,5,5.62587993321,244,4,UnfamiliarFit,5,TRUE,2,2,FALSE,TRUE
3,3,godoro,S87,retrieval,"De godoro in het hotel was niet fijn, ik heb slecht geslapen.",6,2.48377094536,245,3,FamiliarFit,6,TRUE,3,3,TRUE,TRUE
3,3,mshangao,S77,retrieval,"Het bezoek was onverwacht, maar ik vond het een fijne mshangao.",6,2.39207091232,246,3,FamiliarFit,6,TRUE,3,3,TRUE,TRUE
3,3,harufu,S101,context,De jager draagt een harufu op zijn rug.,1,1.93365646908,247,3,FamiliarNoFit,6,TRUE,3,3,TRUE,FALSE
3,3,shukuru,S65,context,"Mijn hartelijke shukuru, je hebt me zeer geholpen.",6,1.68355833269,248,3,FamiliarFit,6,TRUE,3,3,TRUE,TRUE
3,3,fumbo,S84,retrieval,Op het huis van de buren staat een grote fumbo.,1,3.72552270287,249,3,UnfamiliarNoFit,6,TRUE,3,3,FALSE,FALSE
3,3,mguu,S46,context,Mijn mguu past niet in deze kleine schoen.,6,1.37528133589,250,2,FamiliarFit,6,TRUE,3,3,TRUE,TRUE
3,3,kijana,S29,retrieval,Het is een vervelende kijana.,6,3.06718882163,251,3,UnfamiliarFit,6,TRUE,3,3,FALSE,TRUE
3,3,uchafu,S19,retrieval,Wat heb je een leuk uchafu gevonden! Het is heel gezellig hier.,1,1.81698582148,252,4,UnfamiliarNoFit,6,TRUE,3,3,FALSE,FALSE
3,3,kofia,S33,context,Bij de bruiloft droegen veel dames een kofia.,5,5.31752692405,253,3,UnfamiliarFit,5,TRUE,2,2,FALSE,TRUE
3,3,fasihi,S70,retrieval,Ik kan niet wachten totdat de fasihi gegroeid is en appels draagt.,1,2.91710547159,254,3,FamiliarNoFit,6,TRUE,3,3,TRUE,FALSE
3,3,kichwa,S28,context,Ik stootte mijn kichwa.,6,2.12537434006,255,4,UnfamiliarFit,6,TRUE,3,3,FALSE,TRUE
3,3,odare,S1,context,De odare was goed verpakt.,1,2.57544268183,256,3,UnfamiliarNoFit,6,TRUE,3,3,FALSE,FALSE
3,3,keja,S27,retrieval,"Zij vinden het tweede keja het leukst, omdat deze een eigen tuin en meer woonruimte heeft.",6,3.98393032163,257,4,FamiliarFit,6,TRUE,3,3,TRUE,TRUE
3,3,degaga,S64,retrieval,Bij de brouwerij maken ze degaga.,1,1.97533149295,258,3,FamiliarNoFit,6,TRUE,3,3,TRUE,FALSE
3,3,anga,S59,context,"De anga is vol met sterren, mooi!",6,1.325174766,259,3,FamiliarFit,6,TRUE,3,3,TRUE,TRUE
3,3,maumiva,S40,context,Hij kan slecht tegen maumiva.,5,2.5837649254,260,4,UnfamiliarFit,5,TRUE,2,2,FALSE,TRUE
3,3,anga,S59,context,Een anga kun je in verschillende maten kopen. Die voor kinderen zijn meestal kleiner dan die voor volwassenen.,1,2.18363947727,261,4,UnfamiliarNoFit,6,TRUE,3,3,FALSE,FALSE
3,3,hasira,S57,context,Wat een uitbarsting van hasira! Kijk hoe ze met haar voet stampt en gilt.,6,1.5085462581,262,3,FamiliarFit,6,TRUE,3,3,TRUE,TRUE
3,3,kanisa,S24,retrieval,De kanisa is een groot en indrukwekkend gebouw.,6,2.91715346479,263,3,UnfamiliarFit,6,TRUE,3,3,FALSE,TRUE
3,3,maziwa,S41,retrieval,"De maziwa in het hotel was niet fijn, ik heb slecht geslapen.",1,2.40032713056,264,2,FamiliarNoFit,6,TRUE,3,3,TRUE,FALSE
3,3,harufu,S101,context,Deze shampoo heeft een fijne harufu.,6,1.58360430075,265,4,UnfamiliarFit,6,TRUE,3,3,FALSE,TRUE
3,3,goti,S88,context,Ik heb een moedervlek op mijn goti.,6,2.80045535287,266,3,UnfamiliarFit,6,TRUE,3,3,FALSE,TRUE
3,3,zamani,S54,context,Hij en zijn broer hebben hun zamani verloren.,1,1.70856528893,267,3,FamiliarNoFit,6,TRUE,3,3,TRUE,FALSE
3,3,meza,S44,context,Hij is schor en heeft last van zijn meza.,1,1.38355891527,268,3,FamiliarNoFit,6,TRUE,3,3,TRUE,FALSE
3,3,wivu,S56,context,De man heeft last van wivu wanneer zijn vrouw met andere mannen praat.,6,1.8253535615,269,3,FamiliarFit,6,TRUE,3,3,TRUE,TRUE
3,3,saduku,S15,retrieval,Ik ga even naar de bakker om saduku te halen.,1,2.26699646043,270,4,FamiliarNoFit,6,TRUE,3,3,TRUE,FALSE
3,3,baridi,S94,context,Bij de benzinepomp kochten wij een baridi.,1,3.10880780719,271,3,UnfamiliarNoFit,6,TRUE,3,3,FALSE,FALSE
3,3,kitanda,S26,retrieval,Op de kapstok was nog net genoeg ruimte voor het kitanda.,1,2.35023554122,272,4,UnfamiliarNoFit,6,TRUE,3,3,FALSE,FALSE
3,3,bahari,S63,context,"Als er golven zijn, kun je hier prima op de bahari surfen.",6,1.30850725322,273,2,FamiliarFit,6,TRUE,3,3,TRUE,TRUE
3,3,chanjo,S71,context,Jammer dat dit chanjo alleen donkere kleuren en trieste motieven heeft.,1,1.81708125305,274,3,FamiliarNoFit,6,TRUE,3,3,TRUE,FALSE
3,3,adhama,S4,retrieval,"Dat de koningin hem feliciteerde, vond hij een bijzondere adhama.",6,2.85873796737,275,4,FamiliarFit,6,TRUE,3,3,TRUE,TRUE
3,3,mwandani,S3,context,Ik draag een mwandani tegen de zon.,1,1.4918609906,276,2,FamiliarNoFit,6,TRUE,3,3,TRUE,FALSE
3,3,ndege,S96,retrieval,Met een ndege overbrug je snel lange afstanden.,6,1.37526635535,277,4,UnfamiliarFit,6,TRUE,3,3,FALSE,TRUE
3,3,mchuma,S43,retrieval,De jager draagt een mchuma op zijn rug.,6,1.44191698729,278,4,FamiliarFit,6,TRUE,3,3,TRUE,TRUE
3,3,basila,S72,context,In de basila is de kans op kou en sneeuw groter.,1,4.10064729794,279,2,FamiliarNoFit,6,TRUE,3,3,TRUE,FALSE
3,3,kumbukumbu,S18,retrieval,"Lekker, naast bananen liggen er ook appels en kersen. Wat een hoop kumbukumbu.",1,2.71711834375,280,3,FamiliarNoFit,6,TRUE,3,3,TRUE,FALSE
3,3,duka,S78,context,Wij gaan met de fiets naar de duka.,6,3.45056519627,281,3,UnfamiliarFit,6,TRUE,3,3,FALSE,TRUE
3,3,kamba,S23,retrieval,Op de boot lag een kamba.,5,4.16734786501,282,4,UnfamiliarFit,5,TRUE,2,2,FALSE,TRUE
3,3,fasihi,S70,retrieval,Op vakantie lig ik graag op het strand met een fasihi.,6,2.22529979801,283,4,UnfamiliarFit,6,TRUE,3,3,FALSE,TRUE
3,3,maliki,S38,context,Mijn maliki bevat veel verschillende arbeidstaken.,1,2.26715874959,284,4,FamiliarNoFit,6,TRUE,3,3,TRUE,FALSE
3,3,ramani,S108,context,De ramani speelt buiten op straat.,1,2.25028705762,285,2,UnfamiliarNoFit,6,TRUE,3,3,FALSE,FALSE
3,3,wazo,S107,retrieval,Wat een goed wazo om dit te gaan doen.,6,5.26753048886,286,3,FamiliarFit,6,TRUE,3,3,TRUE,TRUE
3,3,farasi,S81,context,Wanneer het meisje binnenkomt hinnikt het farasi.,6,2.79211507716,287,4,FamiliarFit,6,TRUE,3,3,TRUE,TRUE
3,3,memo,S50,context,"Nee, in de vakantie gaan de kinderen niet naar de memo.",1,1.416791019,288,3,FamiliarNoFit,6,TRUE,3,3,TRUE,FALSE
3,3,samaki,S5,context,Samaki moet gekoeld bewaard worden.,6,1.89190820703,289,3,UnfamiliarFit,6,TRUE,3,3,FALSE,TRUE
3,3,memo,S50,context,Het kind kan nu praten. Het leert elke dag een nieuw memo.,6,5.53430889924,290,4,UnfamiliarFit,6,TRUE,3,3,FALSE,TRUE
3,3,barua,S93,context,Mijn barua kan erg goed vertellen.,1,1.70029298048,291,3,UnfamiliarNoFit,6,TRUE,3,3,FALSE,FALSE
3,3,mwandani,S3,context,Mijn mwandani komt uit Afrika.,6,2.10866798884,292,3,UnfamiliarFit,6,TRUE,3,3,FALSE,TRUE
3,3,kanisa,S24,retrieval,Wanneer het meisje binnenkomt hinnikt het kanisa.,1,1.7169033453,293,4,FamiliarNoFit,6,TRUE,3,3,TRUE,FALSE
3,3,panya,S53,retrieval,De kat wacht bij het holletje op de panya.,6,2.08361941999,294,4,FamiliarFit,6,TRUE,3,3,TRUE,TRUE
3,3,dunia,S79,context,Dit is de dunia van het meisje. Ik denk dat zij de moeder is van haar moeder.,1,2.69214134859,295,3,FamiliarNoFit,6,TRUE,3,3,TRUE,FALSE
3,3,shukuru,S65,context,Waar heb je deze shukuru gekocht? Ik wil er ook graag een.,1,1.91693402765,296,4,UnfamiliarNoFit,6,TRUE,3,3,FALSE,FALSE
3,3,zamani,S54,context,Ouderen zijn vaak meer geinteresseerd in het zamani dan jongeren.,6,2.55874437571,297,4,UnfamiliarFit,6,TRUE,3,3,FALSE,TRUE
3,3,ukumbi,S109,retrieval,Hij is erg handig. Hij kan alles repareren met een ukumbi.,1,4.61742674864,298,2,UnfamiliarNoFit,6,TRUE,3,3,FALSE,FALSE
3,3,baskeli,S55,context,Zijn baskeli heeft twee lekke banden.,6,1.7586366268,299,3,FamiliarFit,6,TRUE,3,3,TRUE,TRUE
3,3,mkono,S48,context,In de keuken staat een mkono.,2,8.99301213396,300,2,UnfamiliarNoFit,5,TRUE,2,2,FALSE,FALSE
3,3,tofaa,S11,retrieval,In de hal hangt een tofaa.,1,7.58446318491,301,3,UnfamiliarNoFit,6,TRUE,3,3,FALSE,FALSE
3,3,baridi,S94,context,We gaan er in de baridi naar toe.,5,4.91737983736,302,4,UnfamiliarFit,5,TRUE,2,2,FALSE,TRUE
3,3,lugha,S36,retrieval,Hij beheerst de lugha goed.,6,1.38360413429,303,4,UnfamiliarFit,6,TRUE,3,3,FALSE,TRUE
3,3,kioo,S30,retrieval,Hij had moeite om rustig te blijven tijdens de kioo.,1,2.74214527404,304,4,UnfamiliarNoFit,6,TRUE,3,3,FALSE,FALSE
3,3,odare,S1,context,Dit is een odare voor kunstenaars en fotografen.,6,5.30078506341,305,4,UnfamiliarFit,6,TRUE,3,3,FALSE,TRUE
3,3,simu,S100,retrieval,We kunnen even niet bellen omdat mijn simu nog niet gerepareerd is.,6,1.53353795638,306,3,FamiliarFit,6,TRUE,3,3,TRUE,TRUE
3,3,kidonda,S39,context,"Ik voel me al een week slecht, misschien moet ik toch naar de kidonda.",1,2.39207978967,307,2,FamiliarNoFit,6,TRUE,3,3,TRUE,FALSE
3,3,wingu,S17,retrieval,In de prachtige blauwe hemel is geen wingu te zien.,6,2.43373955558,308,3,FamiliarFit,6,TRUE,3,3,TRUE,TRUE
3,3,mkono,S48,context,Bij de begroeting geeft ze me een mkono.,6,1.34191246539,309,3,FamiliarFit,6,TRUE,3,3,TRUE,TRUE
3,3,tumbili,S13,retrieval,Het is tumbili. De kinderen hebben vrij.,1,1.36684313185,310,3,FamiliarNoFit,6,TRUE,3,3,TRUE,FALSE
3,3,mchoro,S95,context,Hij riep het mchoro na.,1,3.25873191967,311,4,UnfamiliarNoFit,6,TRUE,3,3,FALSE,FALSE
3,3,fumbo,S84,retrieval,Hij heeft de fumbo opgelost.,6,1.61696401647,312,4,FamiliarFit,6,TRUE,3,3,TRUE,TRUE
3,3,maziwa,S41,retrieval,De maziwa rent naar de bal.,1,3.48381921598,313,3,UnfamiliarNoFit,6,TRUE,3,3,FALSE,FALSE
3,3,keza,S14,context,We kunnen even niet bellen omdat mijn keza nog niet gerepareerd is.,1,1.85034387269,314,2,FamiliarNoFit,6,TRUE,3,3,TRUE,FALSE
3,3,wakati,S62,context,Ik ben op zoek naar de wakati om deze deur op slot te zetten.,6,2.01695020109,315,3,FamiliarNoFit,1,FALSE,3,,TRUE,FALSE
3,3,chanjo,S71,context,Geef je me een chanjo zodat ik plaatjes kan uitknippen?,6,4.39231420735,316,4,FamiliarFit,6,TRUE,3,3,TRUE,TRUE
3,3,keza,S14,context,Maandag begin ik met mijn nieuwe keza.,6,3.70060646211,317,3,UnfamiliarFit,6,TRUE,3,3,FALSE,TRUE
3,3,kidonda,S39,context,Mijn kidonda werd door iedereen met enthousiasme ontvangen.,1,3.39202042235,318,3,UnfamiliarNoFit,6,TRUE,3,3,FALSE,FALSE
3,3,paka,S52,retrieval,De paka snort.,6,2.33372976275,319,4,FamiliarFit,6,TRUE,3,3,TRUE,TRUE
3,3,baba,S104,retrieval,De baba is gemaakt van glas en hout.,1,1.97535007991,320,3,UnfamiliarNoFit,6,TRUE,3,3,FALSE,FALSE
3,3,mguu,S46,context,De jongen vergat zijn mguu in de trein. Niemand waarschuwde hem.,1,2.78372181474,321,3,UnfamiliarNoFit,6,TRUE,3,3,FALSE,FALSE
3,3,askari,S61,retrieval,De askari staakt.,6,1.95867785103,322,4,UnfamiliarFit,6,TRUE,3,3,FALSE,TRUE
3,3,kiti,S32,retrieval,"Hij pakt even een kiti voor je, dan kun je ook zitten.",6,1.94203863481,323,3,FamiliarFit,6,TRUE,3,3,TRUE,TRUE
3,3,swali,S22,retrieval,Dit is de moeilijkste swali van de quiz.,6,1.56686022076,324,4,UnfamiliarFit,6,TRUE,3,3,FALSE,TRUE
3,3,mwandani,S3,context,Haar mwandani paste helemaal in de bloemenvaas.,1,9.17635227789,325,4,UnfamiliarNoFit,6,TRUE,3,3,FALSE,FALSE
3,3,mchezo,S89,context,Wat een lekkere mchezo. Wat ben jij aan het bakken?,1,4.10902807658,326,3,FamiliarNoFit,6,TRUE,3,3,TRUE,FALSE
3,3,mchezo,S89,context,Mchezo kan het beste vers gegeten worden.,1,1.80864582319,327,4,UnfamiliarNoFit,6,TRUE,3,3,FALSE,FALSE
3,3,ukumbi,S109,retrieval,Het ukumbi is midden in de stad. Je kunt het niet missen.,5,4.18392077848,328,3,UnfamiliarFit,5,TRUE,2,2,FALSE,TRUE
3,3,kumbukumbu,S18,retrieval,Zijn kumbukumbu is zo goed dat hij 100 spelkaarten kan onthouden.,6,1.71691028073,329,4,FamiliarFit,6,TRUE,3,3,TRUE,TRUE
3,3,kofia,S33,context,Zelfs in de standbye maakt de kofia nog geluid.,1,3.12550861006,330,4,UnfamiliarNoFit,6,TRUE,3,3,FALSE,FALSE
3,3,wimbo,S16,context,We zingen enthousiast mee met het wimbo.,6,2.70878250672,331,4,FamiliarFit,6,TRUE,3,3,TRUE,TRUE
3,3,simu,S100,retrieval,Mijn nichtje is gisteren achtervolgd door een simu.,1,2.03369455849,332,4,UnfamiliarNoFit,6,TRUE,3,3,FALSE,FALSE
3,3,tabibu,S10,context,In het vliegtuig bevindt zich een tabibu.,5,3.25053673325,333,4,UnfamiliarFit,5,TRUE,2,2,FALSE,TRUE
3,3,flava,S83,retrieval,Ik weet niets over flava. Wat is het verschil tussen jazz en rock?,6,2.8170468533,334,4,FamiliarFit,6,TRUE,3,3,TRUE,TRUE
3,3,kijana,S29,retrieval,In deze kijana koop ik graag mijn zomerkleding.,1,2.57543602381,335,4,FamiliarNoFit,6,TRUE,3,3,TRUE,FALSE
3,3,skati,S9,retrieval,"Een kilt is een kledingstuk uit Schotland, een soort skati voor mannen.",6,2.49207432455,336,4,FamiliarFit,6,TRUE,3,3,TRUE,TRUE
3,3,bibi,S67,retrieval,Mijn bibi staat in de keuken en maakt lekkere koekjes.,6,2.11695694233,337,4,UnfamiliarFit,6,TRUE,3,3,FALSE,TRUE
3,3,basila,S72,context,Haar kamer hing vol met basila.,1,3.4172334997,338,3,UnfamiliarNoFit,6,TRUE,3,3,FALSE,FALSE
3,3,chunga,S73,retrieval,"Een rijpe chunga is lekker, maar een onrijpe is vaak erg zuur.",1,4.90078584017,339,3,UnfamiliarNoFit,6,TRUE,3,3,FALSE,FALSE
3,3,dhoruba,S76,context,Vanwege de dhoruba ging het evenement niet door.,6,2.1836575094,340,4,UnfamiliarFit,6,TRUE,3,3,FALSE,TRUE
3,3,hewa,S75,context,Tijdens een astmaaanval gaat het ademen heel zwaar. Men krijgt daardoor minder hewa naar binnen.,6,3.76730370017,341,2,FamiliarFit,6,TRUE,3,3,TRUE,TRUE
3,3,degaga,S64,retrieval,De degaga is vierkant.,2,7.21774156186,342,4,UnfamiliarNoFit,5,TRUE,2,2,FALSE,FALSE
3,3,ramani,S108,context,Hongarije kun je vinden op de ramani.,6,1.5085271163,343,3,FamiliarFit,6,TRUE,3,3,TRUE,TRUE
3,3,mguu,S46,context,"Hij pakt even een mguu voor je, dan kun je ook zitten.",1,2.14193393749,344,4,FamiliarNoFit,6,TRUE,3,3,TRUE,FALSE
3,3,likizo,S35,retrieval,Het is likizo. De kinderen hebben vrij.,6,1.31682838712,345,4,FamiliarFit,6,TRUE,3,3,TRUE,TRUE
3,3,mkate,S25,retrieval,Tijdens een astmaaanval gaat het ademen heel zwaar. Men krijgt daardoor minder mkate naar binnen.,1,3.22548233864,346,4,FamiliarNoFit,6,TRUE,3,3,TRUE,FALSE
3,3,duka,S78,context,Helemaal onder op de stapel met troep lag de duka.,1,2.90880209239,347,4,UnfamiliarNoFit,6,TRUE,3,3,FALSE,FALSE
3,3,mkono,S48,context,In deze mkono zitten veel mooie klanken.,1,2.05878668186,348,4,FamiliarNoFit,6,TRUE,3,3,TRUE,FALSE
3,3,mbwa,S42,context,De mwba blaft hard.,6,1.383586657,349,4,FamiliarFit,6,TRUE,3,3,TRUE,TRUE
3,3,kaputula,S74,context,Iedere week gaat zij naar haar kaputula om even bij te kletsen.,1,4.0255798231,350,3,UnfamiliarNoFit,6,TRUE,3,3,FALSE,FALSE
3,3,hasira,S57,context,"Toen hij terugkwam van zijn reis, had hij een hasira bij zich.",1,2.20869387187,351,4,UnfamiliarNoFit,6,TRUE,3,3,FALSE,FALSE
3,3,sauti,S6,retrieval,In het water staat een sauti.,1,1.84200664859,352,4,UnfamiliarNoFit,6,TRUE,3,3,FALSE,FALSE
3,3,maziwa,S41,retrieval,Zit er maziwa in dit toetje? Daar ben ik allergisch voor.,6,2.34191246539,353,4,UnfamiliarFit,6,TRUE,3,3,FALSE,TRUE
3,3,ramani,S108,context,De kat wacht bij het holletje op de ramani.,1,3.00867872489,354,4,FamiliarNoFit,6,TRUE,3,3,TRUE,FALSE
3,3,tumbili,S13,retrieval,In de dierentuin kijken we naar een tumbili.,6,1.47519209072,355,4,UnfamiliarFit,6,TRUE,3,3,FALSE,TRUE
3,3,chunga,S73,retrieval,We doen de pasta in een chunga.,6,1.85858205881,356,4,FamiliarFit,6,TRUE,3,3,TRUE,TRUE
3,3,taa,S97,retrieval,Naast de kast staat een taa.,6,1.87534555801,357,4,UnfamiliarFit,6,TRUE,3,3,FALSE,TRUE
3,3,jibini,S92,retrieval,Ik hou van jibini op mijn boterham.,6,1.41683152194,358,4,UnfamiliarFit,6,TRUE,3,3,FALSE,TRUE
3,3,bahari,S63,context,Ze hebben hout opgestapeld voor een bahari.,1,2.70869706218,359,3,FamiliarNoFit,6,TRUE,3,3,TRUE,FALSE
3,3,moto,S21,context,Ze hebben hout opgestapeld voor een moto.,6,1.91689019571,360,4,FamiliarFit,6,TRUE,3,3,TRUE,TRUE
3,3,upinde,S99,retrieval,Het meisje kiest een tshirt met daarop een upinde.,6,7.90115508269,361,4,UnfamiliarFit,6,TRUE,3,3,FALSE,TRUE
3,3,ajabu,S58,context,Het is een ajabu dat zij de ramp overleefd hebben.,6,1.53352408552,362,4,UnfamiliarFit,6,TRUE,3,3,FALSE,TRUE
3,3,pombe,S31,retrieval,Bij de brouwerij maken ze pombe.,6,1.41682847035,363,3,FamiliarFit,6,TRUE,3,3,TRUE,TRUE
3,3,rangi,S2,context,We hebben moeite om samen een nieuwe bank te kiezen. We zijn het niet eens over de juiste rangi.,6,2.58370278391,364,4,UnfamiliarFit,6,TRUE,3,3,FALSE,TRUE
3,3,bustani,S68,context,Wie geeft de bloemen in de bustani water terwijl wij op vakantie zijn?,5,3.6756352927,365,3,FamiliarFit,5,TRUE,2,2,TRUE,TRUE
3,3,kidonda,S39,context,Het kind huilt omdat het gevallen is en een kidonda heeft.,6,1.91692182129,366,4,FamiliarFit,6,TRUE,3,3,TRUE,TRUE
3,3,funguo,S60,context,Ik ben op zoek naar de funguo om deze deur op slot te zetten.,5,4.09226762897,367,3,FamiliarFit,5,TRUE,2,2,TRUE,TRUE
3,3,keza,S14,context,Na een lange dag op school was het keza moe.,1,1.95859296131,368,4,UnfamiliarNoFit,6,TRUE,3,3,FALSE,FALSE
3,3,hewa,S75,context,Ze breit een sjaal van fijne hewa.,1,1.72530326573,369,3,FamiliarNoFit,6,TRUE,3,3,TRUE,FALSE
3,3,kiti,S32,retrieval,Tijdens de kiti was zij erg humeurig.,1,2.1170124258,370,4,UnfamiliarNoFit,6,TRUE,3,3,FALSE,FALSE
3,3,jioni,S20,retrieval,Zij bewaarde haar belangrijke papieren zorgvuldig in een jioni.,1,2.08377088987,371,4,UnfamiliarNoFit,6,TRUE,3,3,FALSE,FALSE
3,3,nyanya,S51,retrieval,De nyanya maakt veel herrie.,1,1.4085705876,372,4,UnfamiliarNoFit,6,TRUE,3,3,FALSE,FALSE
3,3,goti,S88,context,Wij mochten nog niet schaatsen op het goti.,1,1.31690356723,373,4,FamiliarNoFit,6,TRUE,3,3,TRUE,FALSE
3,3,mit,S82,retrieval,Dit is de oudste mit van het bos.,6,1.45851653283,374,3,UnfamiliarFit,6,TRUE,3,3,FALSE,TRUE
3,3,samaki,S5,context,In het samaki mag je tijdens het landen geen mobiel gebruiken.,1,2.34198043264,375,4,FamiliarNoFit,6,TRUE,3,3,TRUE,FALSE
3,3,godoro,S87,retrieval,Tijdens haar bezoek kreeg zij godoro aangeboden.,1,2.01694132373,376,4,UnfamiliarNoFit,6,TRUE,3,3,FALSE,FALSE
3,3,dunia,S79,context,Op de dunia bestaat leven.,6,1.9502684984,377,4,FamiliarFit,6,TRUE,3,3,TRUE,TRUE
3,3,mshangao,S77,retrieval,Zijn mshangao houdt van sport.,1,1.81698387955,378,4,UnfamiliarNoFit,6,TRUE,3,3,FALSE,FALSE
3,3,wakati,S62,context,Ik word iedere dag wakker door het ratelen van mijn wakati.,6,1.81690287368,379,4,FamiliarFit,6,TRUE,3,3,TRUE,TRUE
3,3,pombe,S31,retrieval,Jonge kinderen houden van pombe.,5,10.543330512,380,4,UnfamiliarNoFit,2,FALSE,2,,FALSE,FALSE
3,3,tofaa,S11,retrieval,Welke tofaa wil jij? Zowel de rode als de groene smaken lekker.,6,3.1671864081,381,4,FamiliarFit,6,TRUE,3,3,TRUE,TRUE
3,3,funguo,S60,context,De funguo zit vol met vitamines.,1,1.6502934937,382,4,UnfamiliarNoFit,6,TRUE,3,3,FALSE,FALSE
3,3,baskeli,S55,context,Ik zou graag deze kast opbouwen. Heb jij een baskeli bij de hand?,1,3.29212492548,383,4,UnfamiliarNoFit,6,TRUE,3,3,FALSE,FALSE
3,3,ukumbi,S109,retrieval,"Een kilt is een kledingstuk uit Schotland, een soort ukumbi voor mannen.",1,2.50875765013,384,4,FamiliarNoFit,6,TRUE,3,3,TRUE,FALSE
3,3,tunda,S66,retrieval,"Lekker, naast bananen liggen er ook appels en kersen. Wat een hoop tunda.",6,2.04195271865,385,4,FamiliarFit,6,TRUE,3,3,TRUE,TRUE
3,3,kaputula,S74,context,"Kijk, hij draagt groene sokken onder de kaputula.",6,1.86689570245,386,4,FamiliarFit,6,TRUE,3,3,TRUE,TRUE
3,3,barua,S93,context,Hij stopt de barua in de brievenbus.,6,1.27515225358,387,4,FamiliarFit,6,TRUE,3,3,TRUE,TRUE
3,3,wingu,S17,retrieval,Het kind huilt omdat het gevallen is en een wingu heeft.,1,3.17553833533,388,4,FamiliarNoFit,6,TRUE,3,3,TRUE,FALSE
3,3,bustani,S68,context,Het kleine meisje nam een hapje van haar bustani.,1,4.350612274,389,4,UnfamiliarNoFit,6,TRUE,3,3,FALSE,FALSE
3,3,wazo,S107,retrieval,Met haar volle aandacht proeft zij het wazo.,1,1.77529110098,390,4,UnfamiliarNoFit,6,TRUE,3,3,FALSE,FALSE
3,3,mit,S82,retrieval,Wil jij even de mit uit de kast pakken?,1,2.86705549485,391,4,UnfamiliarNoFit,6,TRUE,3,3,FALSE,FALSE
3,3,tumaini,S12,retrieval,Hun tumaini is dat de nieuwe regering de bezuinigingen terugdraait.,6,3.99231276478,392,4,UnfamiliarFit,6,TRUE,3,3,FALSE,TRUE
3,3,meza,S44,context,Onze meza is van steigerhout.,6,1.9585896323,393,4,UnfamiliarFit,6,TRUE,3,3,FALSE,TRUE
3,3,chikiru,S45,retrieval,Een chikiru is onmisbaar als je iets wilt bereiken in je leven.,1,1.77520315967,394,4,UnfamiliarNoFit,6,TRUE,3,3,FALSE,FALSE
3,3,basila,S72,context,In Spanje is een ernstig ongeluk gebeurd met een basila.,6,2.50884475918,395,4,UnfamiliarFit,6,TRUE,3,3,FALSE,TRUE
3,3,hewa,S75,context,Mijn vriendin nam haar hewa mee op de fiets.,1,1.46683738931,396,4,UnfamiliarNoFit,6,TRUE,3,3,FALSE,FALSE
3,3,ufu,S34,retrieval,Kijk eens naar haar ufu! Hoe kan zij zoveel eten?,1,1.84198195844,397,4,FamiliarNoFit,6,TRUE,3,3,TRUE,FALSE
3,3,bahari,S63,context,Op de boerderij is een bahari.,1,2.00026909485,398,4,UnfamiliarNoFit,6,TRUE,3,3,FALSE,FALSE
3,3,baba,S104,retrieval,"Ja, het is donker in de baba. De schemering valt nu al in de namiddag.",1,2.33365180847,399,4,FamiliarNoFit,6,TRUE,3,3,TRUE,FALSE
3,3,wivu,S56,context,Bij de deur hangt een wivu.,1,2.10868213712,400,4,UnfamiliarNoFit,6,TRUE,3,3,FALSE,FALSE
4,4,lugha,S36,retrieval,In deze lugha zitten veel mooie klanken.,5,22.3617711101,1,1,FamiliarFit,5,TRUE,2,2,TRUE,TRUE
4,4,chanjo,S71,retrieval,Geef je me een chanjo zodat ik plaatjes kan uitknippen?,6,6.06754585778,2,1,FamiliarFit,6,TRUE,3,3,TRUE,TRUE
4,4,maliki,S38,context,Mijn maliki bevat veel verschillende arbeidstaken.,1,5.44252675066,3,1,FamiliarNoFit,6,TRUE,3,3,TRUE,FALSE
4,4,mchezo,S89,context,Wat een lekkere mchezo. Wat ben jij aan het bakken?,2,14.4689038713,4,1,FamiliarNoFit,5,TRUE,2,2,TRUE,FALSE
4,4,mwandani,S3,retrieval,Haar mwandani paste helemaal in de bloemenvaas.,1,8.80139163648,5,1,UnfamiliarNoFit,6,TRUE,3,3,FALSE,FALSE
4,4,askari,S61,context,De askari staakt.,3,7.88457523378,6,1,UnfamiliarFit,3,FALSE,1,,FALSE,TRUE
4,4,memo,S50,retrieval,Het jonge kind en zijn memo zijn onafscheidelijk.,1,4.95913780902,7,1,UnfamiliarNoFit,6,TRUE,3,3,FALSE,FALSE
4,4,kumbukumbu,S18,retrieval,"Lekker, naast bananen liggen er ook appels en kersen. Wat een hoop kumbukumbu.",1,6.34253138353,8,1,FamiliarNoFit,6,TRUE,3,3,TRUE,FALSE
4,4,zamani,S54,context,Het zamani is zacht en rond.,3,11.7018101761,9,1,UnfamiliarNoFit,4,TRUE,1,1,FALSE,FALSE
4,4,uchafu,S19,retrieval,Wie zet morgen het uchafu buiten?,5,10.6433414145,10,1,UnfamiliarFit,5,TRUE,2,2,FALSE,TRUE
4,4,goti,S88,retrieval,Wij mochten nog niet schaatsen op het goti.,1,7.934485947,11,1,FamiliarNoFit,6,TRUE,3,3,TRUE,FALSE
4,4,mkate,S25,context,Hij stootte zijn mkate tegen de deurpost. Daarom loopt hij nu op krukken.,5,13.6521305515,12,1,UnfamiliarNoFit,2,FALSE,2,,FALSE,FALSE
4,4,pombe,S31,retrieval,De studenten drinken pombe.,6,5.65079062562,13,1,UnfamiliarFit,6,TRUE,3,3,FALSE,TRUE
4,4,saduku,S15,context,Ik ga even naar de bakker om saduku te halen.,1,4.81730651595,14,1,FamiliarNoFit,6,TRUE,3,3,TRUE,FALSE
4,4,kiti,S32,context,Op de kiti bestaat leven.,3,6.89274878165,15,1,FamiliarNoFit,4,TRUE,1,1,TRUE,FALSE
4,4,goti,S88,retrieval,Ik heb een moedervlek op mijn goti.,5,8.97639261437,16,2,UnfamiliarFit,5,TRUE,2,2,FALSE,TRUE
4,4,jioni,S20,retrieval,Zij bewaarde haar belangrijke papieren zorgvuldig in een jioni.,1,6.80107676777,17,1,UnfamiliarNoFit,6,TRUE,3,3,FALSE,FALSE
4,4,baridi,S94,context,Ze is moe en wil graag naar baridi.,2,8.84305667332,18,1,FamiliarNoFit,5,TRUE,2,2,TRUE,FALSE
4,4,ukumbi,S109,retrieval,In het ukumbi draait een toneelvoorstelling.,6,3.75044282747,19,1,FamiliarFit,6,TRUE,3,3,TRUE,TRUE
4,4,dunia,S79,retrieval,De dunia is rond.,5,5.44252841517,20,1,UnfamiliarFit,5,TRUE,2,2,FALSE,TRUE
4,4,kiti,S32,context,Tijdens de kiti was zij erg humeurig.,3,8.50127292958,21,2,UnfamiliarNoFit,4,TRUE,1,1,FALSE,FALSE
4,4,lugha,S36,retrieval,De blinde man hoorde dat Jezus er was. Hij hoopte op een lugha,1,6.22591067106,22,2,FamiliarNoFit,6,TRUE,3,3,TRUE,FALSE
4,4,tumbili,S13,context,Het is tumbili. De kinderen hebben vrij.,4,11.3601263026,23,1,FamiliarNoFit,3,FALSE,1,,TRUE,FALSE
4,4,funguo,S60,context,"Mijn hartelijke funguo, je hebt me zeer geholpen.",2,7.65121119035,24,1,FamiliarNoFit,5,TRUE,2,2,TRUE,FALSE
4,4,mwandani,S3,retrieval,Mijn mwandani komt uit Afrika.,5,4.47572389981,25,2,UnfamiliarFit,5,TRUE,2,2,FALSE,TRUE
4,4,sauti,S6,retrieval,In het water staat een sauti.,3,11.8435155216,26,1,UnfamiliarNoFit,4,TRUE,1,1,FALSE,FALSE
4,4,maumiva,S40,context,Bij de begroeting geeft ze me een maumiva.,1,5.04247204396,27,1,FamiliarNoFit,6,TRUE,3,3,TRUE,FALSE
4,4,tumaini,S12,context,De chauffeur van de tumaini stopt alleen als er iemand bij de halte staat.,6,9.00133604204,28,1,FamiliarNoFit,1,FALSE,3,,TRUE,FALSE
4,4,tofaa,S11,context,In de hal hangt een tofaa.,1,5.97594541758,29,1,UnfamiliarNoFit,6,TRUE,3,3,FALSE,FALSE
4,4,panya,S53,retrieval,De kat wacht bij het holletje op de panya.,5,7.07611333831,30,1,FamiliarFit,5,TRUE,2,2,TRUE,TRUE
4,4,mguu,S46,retrieval,Ik schop de bal met mijn mguu.,5,6.71764155291,31,1,UnfamiliarFit,5,TRUE,2,2,FALSE,TRUE
4,4,funguo,S60,context,De funguo zit vol met vitamines.,2,7.38453154055,32,2,UnfamiliarNoFit,5,TRUE,2,2,FALSE,FALSE
4,4,basila,S72,context,Haar kamer hing vol met basila.,2,7.77612002407,33,1,UnfamiliarNoFit,5,TRUE,2,2,FALSE,FALSE
4,4,barafu,S37,retrieval,Wij mochten nog niet schaatsen op het barafu.,3,4.16735313594,34,1,FamiliarFit,3,FALSE,1,,TRUE,TRUE
4,4,kaputula,S74,context,Deze stof is erg geschikt voor het maken van een kaputula.,6,3.62553121958,35,1,UnfamiliarFit,6,TRUE,3,3,FALSE,TRUE
4,4,keja,S27,context,Het keja wordt goed onderhouden.,3,12.4351849001,36,1,UnfamiliarFit,3,FALSE,1,,FALSE,TRUE
4,4,paka,S52,retrieval,De studenten spreken vaak in de paka af.,1,8.17631066528,37,1,UnfamiliarNoFit,6,TRUE,3,3,FALSE,FALSE
4,4,pamba,S98,context,Langs de snelweg zie je altijd veel pamba.,3,7.2760821566,38,1,UnfamiliarNoFit,4,TRUE,1,1,FALSE,FALSE
4,4,kijana,S29,retrieval,De kijana speelt graag met auto's.,6,3.55049453807,39,1,FamiliarFit,6,TRUE,3,3,TRUE,TRUE
4,4,taa,S97,retrieval,Naast de kast staat een taa.,6,3.81729014833,40,1,UnfamiliarFit,6,TRUE,3,3,FALSE,TRUE
4,4,zamani,S54,context,"Niemand weet dat. Wat ze vroeger deed, behoort tot het zamani.",6,5.7509288627,41,2,FamiliarFit,6,TRUE,3,3,TRUE,TRUE
4,4,barafu,S37,retrieval,Kijk eens door het raam! Daar staat een barafu.,3,7.55120056526,42,2,UnfamiliarNoFit,4,TRUE,1,1,FALSE,FALSE
4,4,ajabu,S58,retrieval,Bij de Intratuin hebben ze een leuke ajabu in de aanbieding.,3,8.13454742269,43,1,UnfamiliarNoFit,4,TRUE,1,1,FALSE,FALSE
4,4,askari,S61,context,Zij ging hengelen en hoopte op een askari.,3,18.8779377459,44,2,FamiliarNoFit,4,TRUE,1,1,TRUE,FALSE
4,4,taa,S97,retrieval,De man heeft last van taa wanneer zijn vrouw met andere mannen praat.,1,5.91760926152,45,2,FamiliarNoFit,6,TRUE,3,3,TRUE,FALSE
4,4,mkate,S25,context,Vers mkate is het lekkerst.,3,6.55938410016,46,2,UnfamiliarFit,3,FALSE,1,,FALSE,TRUE
4,4,samaki,S5,retrieval,Hij had zijn laptop voor zich staan op de samaki en was druk aan het werk.,1,3.95057448975,47,1,UnfamiliarNoFit,6,TRUE,3,3,FALSE,FALSE
4,4,harufu,S101,context,Deze shampoo heeft een fijne harufu.,3,10.8016740474,48,1,UnfamiliarFit,3,FALSE,1,,FALSE,TRUE
4,4,funguo,S60,context,Ik ben op zoek naar de funguo om deze deur op slot te zetten.,6,5.18410109977,49,3,FamiliarFit,6,TRUE,3,3,TRUE,TRUE
4,4,kioo,S30,retrieval,Ik kan mijn outfit bekijken in de kioo.,6,3.05050077996,50,1,FamiliarFit,6,TRUE,3,3,TRUE,TRUE
4,4,baba,S104,context,De jongen lijkt op zijn baba.,6,2.45041677798,51,1,UnfamiliarFit,6,TRUE,3,3,FALSE,TRUE
4,4,mit,S82,retrieval,Hij heeft de mit opgelost.,1,5.26744310239,52,1,FamiliarNoFit,6,TRUE,3,3,TRUE,FALSE
4,4,kitanda,S26,retrieval,Ons nieuwe kitanda is van de Ikea.,1,7.1094516929,53,1,UnfamiliarFit,1,FALSE,3,,FALSE,TRUE
4,4,likizo,S35,retrieval,Tijdens de wandeling zag hij een mooie likizo.,2,10.43488307,54,1,UnfamiliarNoFit,5,TRUE,2,2,FALSE,FALSE
4,4,bamba,S47,retrieval,Dit bamba is een erfstuk. Het is gemaakt van porselein en heeft een randje uit goud.,3,8.05118932986,55,1,UnfamiliarFit,3,FALSE,1,,FALSE,TRUE
4,4,farasi,S81,context,"Omdat ik bijziend ben, draag ik een farasi.",6,2.19196893369,56,1,FamiliarNoFit,1,FALSE,3,,TRUE,FALSE
4,4,adhama,S4,context,De hond staat bij de adhama omdat hij met mij naar buiten wil.,1,5.23410641231,57,1,FamiliarNoFit,6,TRUE,3,3,TRUE,FALSE
4,4,chunga,S73,context,Deze muur werd gisteren geverfd. Wat vind je van de chunga?,5,4.0173385854,58,1,FamiliarNoFit,2,FALSE,2,,TRUE,FALSE
4,4,simu,S100,retrieval,Mijn nieuwe simu maakt hele mooie foto's.,2,5.14241525662,59,1,UnfamiliarFit,2,FALSE,2,,FALSE,TRUE
4,4,jibini,S92,context,Zijn jibini heeft twee lekke banden.,2,5.01747035865,60,1,FamiliarNoFit,5,TRUE,2,2,TRUE,FALSE
4,4,ramani,S108,context,De kat wacht bij het holletje op de ramani.,2,5.00911427016,61,1,FamiliarNoFit,5,TRUE,2,2,TRUE,FALSE
4,4,degaga,S64,context,De degaga is vierkant.,2,5.52587430164,62,1,UnfamiliarNoFit,5,TRUE,2,2,FALSE,FALSE
4,4,mbwa,S42,retrieval,De mwba blaft hard.,6,5.39250784467,63,1,FamiliarFit,6,TRUE,3,3,TRUE,TRUE
4,4,ufu,S34,context,Iedereen reageerde geschokt op zijn ufu omdat hij zo plotseling is overleden.,2,10.7100211753,64,1,FamiliarFit,2,FALSE,2,,TRUE,TRUE
4,4,moto,S21,retrieval,Spelen met moto is gevaarlijk omdat je jezelf kunt verbranden.,6,5.85084794005,65,1,UnfamiliarFit,6,TRUE,3,3,FALSE,TRUE
4,4,kichwa,S28,context,Zij zette ter voorbereiding haar kichwa alvast bij de deur.,4,9.36805711025,66,1,UnfamiliarNoFit,3,FALSE,1,,FALSE,FALSE
4,4,mguu,S46,retrieval,De jongen vergat zijn mguu in de trein. Niemand waarschuwde hem.,3,4.75078682501,67,2,UnfamiliarNoFit,4,TRUE,1,1,FALSE,FALSE
4,4,mkono,S48,retrieval,In de keuken staat een mkono.,3,6.37600816938,68,1,UnfamiliarNoFit,4,TRUE,1,1,FALSE,FALSE
4,4,mchezo,S89,context,Mchezo kan het beste vers gegeten worden.,3,8.99307150127,69,2,UnfamiliarNoFit,4,TRUE,1,1,FALSE,FALSE
4,4,wimbo,S16,context,Hij heeft een nieuw wimbo geschreven.,5,3.85898070757,70,1,UnfamiliarFit,5,TRUE,2,2,FALSE,TRUE
4,4,saduku,S15,context,Ik heb de saduku met je spullen op de zolder gezet.,6,3.87553503407,71,2,FamiliarFit,6,TRUE,3,3,TRUE,TRUE
4,4,farasi,S81,context,Er staat een farasi in de wei.,6,4.23394828441,72,2,UnfamiliarFit,6,TRUE,3,3,FALSE,TRUE
4,4,ramani,S108,context,De ramani speelt buiten op straat.,2,3.90889835622,73,2,UnfamiliarNoFit,5,TRUE,2,2,FALSE,FALSE
4,4,farasi,S81,context,De man had zichzelf buiten gesloten. Gelukkig was zijn farasi thuis.,1,4.60075313266,74,3,UnfamiliarNoFit,6,TRUE,3,3,FALSE,FALSE
4,4,mchezo,S89,context,Ze doen graag een mchezo waarbij een van de kinderen zijn vrienden moet vangen.,4,12.1268748906,75,3,FamiliarFit,4,TRUE,1,1,TRUE,TRUE
4,4,pombe,S31,retrieval,Jonge kinderen houden van pombe.,1,2.51712011922,76,2,UnfamiliarNoFit,6,TRUE,3,3,FALSE,FALSE
4,4,odare,S1,context,De odare was goed verpakt.,2,3.81728598707,77,1,UnfamiliarNoFit,5,TRUE,2,2,FALSE,FALSE
4,4,barua,S93,context,Ik heb een barua gekregen van mijn neefje.,4,9.74319224718,78,1,UnfamiliarFit,4,TRUE,1,1,FALSE,TRUE
4,4,wazo,S107,retrieval,Wat een goed wazo om dit te gaan doen.,6,6.3093392279,79,1,FamiliarFit,6,TRUE,3,3,TRUE,TRUE
4,4,upinde,S99,retrieval,Deze stiften moeten opgeborgen worden in de upinde.,1,4.97569768387,80,1,UnfamiliarNoFit,6,TRUE,3,3,FALSE,FALSE
4,4,chunga,S73,context,Er staat een chunga in haar keukenkastje.,2,7.58454086178,81,2,UnfamiliarFit,2,FALSE,2,,FALSE,TRUE
4,4,godoro,S87,retrieval,Tijdens haar bezoek kreeg zij godoro aangeboden.,3,18.0694650311,82,1,UnfamiliarNoFit,4,TRUE,1,1,FALSE,FALSE
4,4,koti,S91,retrieval,Met een koti verplaatste hij al zijn spullen.,1,5.48411938157,83,1,UnfamiliarNoFit,6,TRUE,3,3,FALSE,FALSE
4,4,mguu,S46,retrieval,"Hij pakt even een mguu voor je, dan kun je ook zitten.",1,2.72538538127,84,3,FamiliarNoFit,6,TRUE,3,3,TRUE,FALSE
4,4,shukuru,S65,retrieval,Welke shukuru wil jij? Zowel de rode als de groene smaken lekker.,2,7.71789206079,85,1,FamiliarNoFit,5,TRUE,2,2,TRUE,FALSE
4,4,rangi,S2,context,We hebben moeite om samen een nieuwe bank te kiezen. We zijn het niet eens over de juiste rangi.,5,7.67612437952,86,1,UnfamiliarFit,5,TRUE,2,2,FALSE,TRUE
4,4,ajabu,S58,retrieval,De blinde man hoorde dat Jezus er was. Hij hoopte op een ajabu.,3,6.09265795521,87,2,FamiliarFit,3,FALSE,1,,TRUE,TRUE
4,4,kidonda,S39,context,"Ik voel me al een week slecht, misschien moet ik toch naar de kidonda.",5,4.09224931943,88,1,FamiliarNoFit,2,FALSE,2,,TRUE,FALSE
4,4,ukumbi,S109,retrieval,Hij is erg handig. Hij kan alles repareren met een ukumbi.,3,10.8349513701,89,2,UnfamiliarNoFit,4,TRUE,1,1,FALSE,FALSE
4,4,kidonda,S39,context,Het kind huilt omdat het gevallen is en een kidonda heeft.,4,10.6683483707,90,2,FamiliarFit,4,TRUE,1,1,TRUE,TRUE
4,4,baskeli,S55,context,Zijn baskeli heeft twee lekke banden.,6,3.07542478841,91,1,FamiliarFit,6,TRUE,3,3,TRUE,TRUE
4,4,baskeli,S55,context,Ik ben aan mijn baskeli geopereerd.,1,2.76713225623,92,2,FamiliarNoFit,6,TRUE,3,3,TRUE,FALSE
4,4,maumiva,S40,context,Hij kan slecht tegen maumiva.,5,3.10042758339,93,2,UnfamiliarFit,5,TRUE,2,2,FALSE,TRUE
4,4,maji,S49,context,Zijn nichtje speelt graag met maji.,3,3.86720751956,94,1,UnfamiliarFit,3,FALSE,1,,FALSE,TRUE
4,4,bahari,S63,retrieval,"Als er golven zijn, kun je hier prima op de bahari surfen.",6,3.32556509224,95,1,FamiliarFit,6,TRUE,3,3,TRUE,TRUE
4,4,lango,S7,context,Ze doen graag een lango waarbij een van de kinderen zijn vrienden moet vangen.,3,8.00960890532,96,1,FamiliarNoFit,4,TRUE,1,1,TRUE,FALSE
4,4,flava,S83,context,De flava is goed schoongemaakt.,4,7.2093907443,97,1,UnfamiliarNoFit,3,FALSE,1,,FALSE,FALSE
4,4,askari,S61,context,Natuurlijk nam ik tijdens mijn reis mijn askari mee.,3,7.59287170529,98,3,UnfamiliarNoFit,4,TRUE,1,1,FALSE,FALSE
4,4,fumbo,S84,context,Hij heeft de fumbo opgelost.,4,4.14226406416,99,1,FamiliarFit,4,TRUE,1,1,TRUE,TRUE
4,4,sauti,S6,retrieval,Door de intercom klinkt een sauti.,5,7.05936176806,100,2,UnfamiliarFit,5,TRUE,2,2,FALSE,TRUE
4,4,wazo,S107,retrieval,Het mooie licht in de woonkamer komt van de wazo.,1,2.8838325875,101,2,FamiliarNoFit,6,TRUE,3,3,TRUE,FALSE
4,4,wingu,S17,retrieval,Ik vind het heel erg dat ik mijn wingu kwijt ben.,1,4.32572044597,102,1,UnfamiliarNoFit,6,TRUE,3,3,FALSE,FALSE
4,4,mchuma,S43,context,De jager draagt een mchuma op zijn rug.,5,9.85154730923,103,1,FamiliarFit,5,TRUE,2,2,TRUE,TRUE
4,4,maziwa,S41,retrieval,Zit er maziwa in dit toetje? Daar ben ik allergisch voor.,5,6.7427467149,104,1,UnfamiliarFit,5,TRUE,2,2,FALSE,TRUE
4,4,mit,S82,retrieval,Ik kan niet wachten totdat de mit gegroeid is en appels draagt.,6,2.53378846426,105,2,FamiliarFit,6,TRUE,3,3,TRUE,TRUE
4,4,bibi,S67,context,De bibi lag op de vensterbank te drogen.,1,2.27528596876,106,1,UnfamiliarNoFit,6,TRUE,3,3,FALSE,FALSE
4,4,duka,S78,retrieval,In deze duka koop ik graag mijn zomerkleding.,6,3.43382555497,107,1,FamiliarFit,6,TRUE,3,3,TRUE,TRUE
4,4,bibi,S67,context,Dit is de bibi van het meisje. Ik denk dat zij de moeder is van haar moeder.,6,4.10060734984,108,2,FamiliarFit,6,TRUE,3,3,TRUE,TRUE
4,4,tabibu,S10,retrieval,"Ik voel me al een week slecht, misschien moet ik toch naar de tabibu.",2,5.85086486251,109,1,FamiliarFit,2,FALSE,2,,TRUE,TRUE
4,4,mkono,S48,retrieval,Bij de begroeting geeft ze me een mkono.,6,3.842236905,110,2,FamiliarFit,6,TRUE,3,3,TRUE,TRUE
4,4,bahari,S63,retrieval,Ze hebben hout opgestapeld voor een bahari.,1,2.74204096511,111,2,FamiliarNoFit,6,TRUE,3,3,TRUE,FALSE
4,4,wakati,S62,context,Ik word iedere dag wakker door het ratelen van mijn wakati.,6,3.10051552469,112,1,FamiliarFit,6,TRUE,3,3,TRUE,TRUE
4,4,baridi,S94,context,We gaan er in de baridi naar toe.,2,5.88419156557,113,2,UnfamiliarFit,2,FALSE,2,,FALSE,TRUE
4,4,bahari,S63,retrieval,Op de boerderij is een bahari.,2,2.72538676835,114,3,UnfamiliarNoFit,5,TRUE,2,2,FALSE,FALSE
4,4,kichwa,S28,context,Ik heb een helm op mijn kichwa.,4,6.46770376375,115,2,FamiliarFit,4,TRUE,1,1,TRUE,TRUE
4,4,bustani,S68,retrieval,Bij mooi weer zit de oude dame vaak in de bustani.,6,8.26798739527,116,1,UnfamiliarFit,6,TRUE,3,3,FALSE,TRUE
4,4,nyanya,S51,retrieval,In de kas groeit een nyanya.,5,3.76720299766,117,1,UnfamiliarFit,5,TRUE,2,2,FALSE,TRUE
4,4,tumaini,S12,context,Geef de tumaini niet op! Ik weet dat je het kunt!,3,7.14274260911,118,2,FamiliarFit,3,FALSE,1,,TRUE,TRUE
4,4,kaputula,S74,context,Iedere week gaat zij naar haar kaputula om even bij te kletsen.,2,5.60081333223,119,2,UnfamiliarNoFit,5,TRUE,2,2,FALSE,FALSE
4,4,chikiru,S45,retrieval,"In de tuin hebben we een huisje met voer. Kijk, er zit een chikiru te eten!",6,7.69287650461,120,1,FamiliarFit,6,TRUE,3,3,TRUE,TRUE
4,4,goti,S88,retrieval,"Als ik 's avonds het huis uit ga, doe ik mijn goti aan.",2,5.12579573704,121,3,UnfamiliarNoFit,5,TRUE,2,2,FALSE,FALSE
4,4,koti,S91,retrieval,"In de tuin hebben we een huisje met voer. Kijk, er zit een koti te eten!",2,3.60892557086,122,2,FamiliarNoFit,5,TRUE,2,2,TRUE,FALSE
4,4,tofaa,S11,context,Ik doe wat tofaa in mijn koffie. Ik hou niet van zwarte koffie.,2,4.1256689573,123,2,FamiliarNoFit,5,TRUE,2,2,TRUE,FALSE
4,4,wazo,S107,retrieval,Met haar volle aandacht proeft zij het wazo.,2,5.61749249655,124,3,UnfamiliarNoFit,5,TRUE,2,2,FALSE,FALSE
4,4,siri,S8,context,Ik wil het niet vertellen. Het is een siri.,6,9.15142133401,125,1,FamiliarFit,6,TRUE,3,3,TRUE,TRUE
4,4,wingu,S17,retrieval,Uit de schoorsteen komt een dikke zwarte wingu.,6,5.30076092809,126,2,UnfamiliarFit,6,TRUE,3,3,FALSE,TRUE
4,4,jioni,S20,retrieval,Ze hebben maar een enkele vrije jioni deze week.,5,4.4257446645,127,2,UnfamiliarFit,5,TRUE,2,2,FALSE,TRUE
4,4,bamba,S47,retrieval,In dit bamba kun je ook groenten kopen.,2,3.74220186718,128,2,UnfamiliarNoFit,5,TRUE,2,2,FALSE,FALSE
4,4,swali,S22,retrieval,Dit is de moeilijkste swali van de quiz.,5,10.9016388986,129,1,UnfamiliarFit,5,TRUE,2,2,FALSE,TRUE
4,4,mshangao,S77,context,In het pakketje zit een mshangao voor hem.,2,3.75888796694,130,1,UnfamiliarFit,2,FALSE,2,,FALSE,TRUE
4,4,uchafu,S19,retrieval,Wat heb je een leuk uchafu gevonden! Het is heel gezellig hier.,2,7.70962474585,131,2,UnfamiliarNoFit,5,TRUE,2,2,FALSE,FALSE
4,4,tumaini,S12,context,Morgen gaat hij voor twee weken naar de tumaini.,2,5.46753453916,132,3,UnfamiliarNoFit,5,TRUE,2,2,FALSE,FALSE
4,4,moto,S21,retrieval,Tegen de muur staat een moto.,2,2.20873271031,133,2,UnfamiliarNoFit,5,TRUE,2,2,FALSE,FALSE
4,4,paka,S52,retrieval,De paka loopt door de tuin.,5,4.51732235648,134,2,UnfamiliarFit,5,TRUE,2,2,FALSE,TRUE
4,4,flava,S83,context,Ik weet niets over flava. Wat is het verschil tussen jazz en rock?,5,6.46771541528,135,2,FamiliarFit,5,TRUE,2,2,TRUE,TRUE
4,4,mshangao,S77,context,Zijn mshangao houdt van sport.,2,5.13417318667,136,2,UnfamiliarNoFit,5,TRUE,2,2,FALSE,FALSE
4,4,jibini,S92,context,Gouda is lekkere jibini.,5,6.46767713168,137,2,FamiliarFit,5,TRUE,2,2,TRUE,TRUE
4,4,kamba,S23,context,Op de boot lag een kamba.,4,4.2923568464,138,1,UnfamiliarFit,4,TRUE,1,1,FALSE,TRUE
4,4,dunia,S79,retrieval,Deze dunia brengt je vrijwel overal naar toe.,2,3.36722596782,139,2,UnfamiliarNoFit,5,TRUE,2,2,FALSE,FALSE
4,4,maji,S49,context,Het maji is een uitvinding van afgelopen jaar.,3,3.93397771839,140,2,UnfamiliarNoFit,4,TRUE,1,1,FALSE,FALSE
4,4,keza,S14,context,Maandag begin ik met mijn nieuwe keza.,6,3.95064523118,141,1,UnfamiliarFit,6,TRUE,3,3,FALSE,TRUE
4,4,kichwa,S28,context,De kichwa blaft hard.,3,3.42557960117,142,3,FamiliarNoFit,4,TRUE,1,1,TRUE,FALSE
4,4,fasihi,S70,context,Het fasihi genoot van de zon.,3,3.83398068676,143,1,UnfamiliarNoFit,4,TRUE,1,1,FALSE,FALSE
4,4,odare,S1,context,Iedere woensdagmiddag gaat zij naar de bibliotheek en leent zij een nieuw odare.,5,5.05073048154,144,2,FamiliarNoFit,2,FALSE,2,,TRUE,FALSE
4,4,mchoro,S95,retrieval,Ik kocht een mchoro op de veiling. Hij hangt nu aan de muur.,5,5.96755992285,145,1,UnfamiliarFit,5,TRUE,2,2,FALSE,TRUE
4,4,simu,S100,retrieval,"Het is hier vies en smerig, er moet eindelijk iemand het simu opruimen!",2,4.42562898146,146,2,FamiliarNoFit,5,TRUE,2,2,TRUE,FALSE
4,4,godoro,S87,retrieval,"Niemand weet dat. Wat ze vroeger deed, behoort tot het godoro.",2,5.55922097874,147,2,FamiliarNoFit,5,TRUE,2,2,TRUE,FALSE
4,4,koti,S91,retrieval,Het is koud buiten. Denk aan je koti.,6,3.30887705056,148,3,FamiliarFit,6,TRUE,3,3,TRUE,TRUE
4,4,mshangao,S77,context,De mshangao klimt behendig in de palmboom.,5,3.60051788274,149,3,FamiliarNoFit,2,FALSE,2,,TRUE,FALSE
4,4,skati,S9,context,Skati is een gemoedstoestand.,3,5.88419905584,150,1,UnfamiliarNoFit,4,TRUE,1,1,FALSE,FALSE
4,4,kofia,S33,retrieval,Zelfs in de standbye maakt de kofia nog geluid.,2,10.7516085352,151,1,UnfamiliarNoFit,5,TRUE,2,2,FALSE,FALSE
4,4,maliki,S38,context,Hij stuurde zijn zusje naar de supermarkt om maliki te halen.,1,3.51717338336,152,2,UnfamiliarNoFit,6,TRUE,3,3,FALSE,FALSE
4,4,kanisa,S24,retrieval,Zondag ochtend gaan wij met de hele familie naar de kanisa.,6,5.80918456772,153,1,FamiliarFit,6,TRUE,3,3,TRUE,TRUE
4,4,wimbo,S16,context,We doen de pasta in een wimbo.,1,4.72568277269,154,2,FamiliarNoFit,6,TRUE,3,3,TRUE,FALSE
4,4,lango,S7,context,De hond staat bij de lango omdat hij met mij naar buiten wil.,5,7.48452857219,155,2,FamiliarFit,5,TRUE,2,2,TRUE,TRUE
4,4,skati,S9,context,"Een kilt is een kledingstuk uit Schotland, een soort skati voor mannen.",6,5.20075141268,156,2,FamiliarFit,6,TRUE,3,3,TRUE,TRUE
4,4,odare,S1,context,Dit is een odare voor kunstenaars en fotografen.,2,5.90095478735,157,3,UnfamiliarFit,2,FALSE,2,,FALSE,TRUE
4,4,mchoro,S95,retrieval,Bij het scrabble spel moet je steeds een mchoro verzinnen.,1,5.2675246631,158,2,FamiliarNoFit,6,TRUE,3,3,TRUE,FALSE
4,4,pamba,S98,context,Ze draagt de trui niet graag omdat de pamba kriebelt op haar huid.,2,9.30145252959,159,2,UnfamiliarFit,2,FALSE,2,,FALSE,TRUE
4,4,degaga,S64,context,"Omdat ik bijziend ben, draag ik een degaga.",6,4.90903318106,160,2,FamiliarFit,6,TRUE,3,3,TRUE,TRUE
4,4,samaki,S5,retrieval,Zij ging hengelen en hoopte op een samaki.,5,5.28418856946,161,2,FamiliarFit,5,TRUE,2,2,TRUE,TRUE
4,4,kumbukumbu,S18,retrieval,Zijn kumbukumbu is zo goed dat hij 100 spelkaarten kan onthouden.,5,3.12559211269,162,2,FamiliarFit,5,TRUE,2,2,TRUE,TRUE
4,4,anga,S59,context,Ik hoop dat ik naar de anga ga.,6,6.18423481494,163,1,UnfamiliarFit,6,TRUE,3,3,FALSE,TRUE
4,4,siri,S8,context,Ik kan mijn outfit bekijken in de siri.,1,4.65888094828,164,2,FamiliarNoFit,6,TRUE,3,3,TRUE,FALSE
4,4,tunda,S66,retrieval,Tunda is erg gezond. Het bevat veel vitamines.,2,8.32623311326,165,1,UnfamiliarFit,2,FALSE,2,,FALSE,TRUE
4,4,fasihi,S70,context,Op vakantie lig ik graag op het strand met een fasihi.,2,5.58413694209,166,2,UnfamiliarFit,2,FALSE,2,,FALSE,TRUE
4,4,maziwa,S41,retrieval,"De maziwa in het hotel was niet fijn, ik heb slecht geslapen.",3,5.79259695113,167,2,FamiliarNoFit,4,TRUE,1,1,TRUE,FALSE
4,4,dhoruba,S76,retrieval,Vanwege de dhoruba ging het evenement niet door.,6,4.20067595516,168,1,UnfamiliarFit,6,TRUE,3,3,FALSE,TRUE
4,4,meza,S44,context,We vinden het gezellig om samen met veel vrienden te eten. Gelukkig is onze meza hiervoor nu groot genoeg.,5,5.97576093503,169,1,FamiliarFit,5,TRUE,2,2,TRUE,TRUE
4,4,degaga,S64,context,Bij de brouwerij maken ze degaga.,2,3.99225006845,170,3,FamiliarNoFit,5,TRUE,2,2,TRUE,FALSE
4,4,kiti,S32,context,In de garage staat een oude kiti.,4,3.41724293189,171,3,UnfamiliarFit,4,TRUE,1,1,FALSE,TRUE
4,4,tumbili,S13,context,De tumbili klimt behendig in de palmboom.,5,5.15916377529,172,2,FamiliarFit,5,TRUE,2,2,TRUE,TRUE
4,4,chunga,S73,context,"Een rijpe chunga is lekker, maar een onrijpe is vaak erg zuur.",3,4.20903232107,173,3,UnfamiliarNoFit,4,TRUE,1,1,FALSE,FALSE
4,4,panya,S53,retrieval,Zij keek door de panya naar het stromende water.,3,4.1173494879,174,2,UnfamiliarNoFit,4,TRUE,1,1,FALSE,FALSE
4,4,chikiru,S45,retrieval,In het chikiru draait een toneelvoorstelling.,3,3.75885634136,175,2,FamiliarNoFit,4,TRUE,1,1,TRUE,FALSE
4,4,upinde,S99,retrieval,Het meisje kiest een tshirt met daarop een upinde.,5,5.90086046544,176,2,UnfamiliarFit,5,TRUE,2,2,FALSE,TRUE
4,4,fumbo,S84,context,Op het huis van de buren staat een grote fumbo.,1,5.20084212816,177,2,UnfamiliarNoFit,6,TRUE,3,3,FALSE,FALSE
4,4,godoro,S87,retrieval,Kleine kinderen springen graag op een godoro.,6,3.5755844421,178,3,UnfamiliarFit,6,TRUE,3,3,FALSE,TRUE
4,4,moto,S21,retrieval,Ik onderneem veel samen met mijn moto en ik kan altijd op hem vertrouwen.,2,2.92539997342,179,3,FamiliarNoFit,5,TRUE,2,2,TRUE,FALSE
4,4,swali,S22,retrieval,Door de warmte is haar hoofd zo rood als een swali.,2,5.15075553233,180,2,FamiliarNoFit,5,TRUE,2,2,TRUE,FALSE
4,4,hewa,S75,retrieval,Tijdens een astmaaanval gaat het ademen heel zwaar. Men krijgt daardoor minder hewa naar binnen.,5,10.5515442854,181,1,FamiliarFit,5,TRUE,2,2,TRUE,TRUE
4,4,basila,S72,context,In Spanje is een ernstig ongeluk gebeurd met een basila.,3,3.30888897951,182,2,UnfamiliarFit,3,FALSE,1,,FALSE,TRUE
4,4,adhama,S4,context,Hij zou alles doen om de adhama van zijn familie te redden.,5,4.80911299403,183,2,UnfamiliarFit,5,TRUE,2,2,FALSE,TRUE
4,4,hasira,S57,context,Zorg dat je hasira is bekoeld voordat je deze belangrijke beslissing neemt!,3,5.96754244555,184,1,UnfamiliarFit,3,FALSE,1,,FALSE,TRUE
4,4,kitanda,S26,retrieval,Op de kapstok was nog net genoeg ruimte voor het kitanda.,2,4.88411721772,185,2,UnfamiliarNoFit,5,TRUE,2,2,FALSE,FALSE
4,4,swali,S22,retrieval,Aan de overkant van de straat zag zij een swali.,2,3.75052549785,186,3,UnfamiliarNoFit,5,TRUE,2,2,FALSE,FALSE
4,4,likizo,S35,retrieval,Het is likizo. De kinderen hebben vrij.,6,2.15871963008,187,2,FamiliarFit,6,TRUE,3,3,TRUE,TRUE
4,4,baba,S104,context,"Ja, het is donker in de baba. De schemering valt nu al in de namiddag.",2,3.85897599147,188,2,FamiliarNoFit,5,TRUE,2,2,TRUE,FALSE
4,4,tofaa,S11,context,Welke tofaa wil jij? Zowel de rode als de groene smaken lekker.,6,4.10891267096,189,3,FamiliarFit,6,TRUE,3,3,TRUE,TRUE
4,4,bustani,S68,retrieval,Het kleine meisje nam een hapje van haar bustani.,1,4.34238879101,190,2,UnfamiliarNoFit,6,TRUE,3,3,FALSE,FALSE
4,4,kofia,S33,retrieval,Bij de bruiloft droegen veel dames een kofia.,5,3.93390198345,191,2,UnfamiliarFit,5,TRUE,2,2,FALSE,TRUE
4,4,dhoruba,S76,retrieval,Wij kochten de dhoruba op de markt.,2,4.7757690911,192,2,UnfamiliarNoFit,5,TRUE,2,2,FALSE,FALSE
4,4,maliki,S38,context,De maliki zit op zijn troon.,6,2.30870560663,193,3,FamiliarFit,6,TRUE,3,3,TRUE,TRUE
4,4,ramani,S108,context,Hongarije kun je vinden op de ramani.,6,3.37557095962,194,3,FamiliarFit,6,TRUE,3,3,TRUE,TRUE
4,4,memo,S50,retrieval,Bij het scrabble spel moet je steeds een memo verzinnen.,6,2.79212783836,195,2,FamiliarFit,6,TRUE,3,3,TRUE,TRUE
4,4,baskeli,S55,context,Ik zou graag deze kast opbouwen. Heb jij een baskeli bij de hand?,2,10.6849254455,196,3,UnfamiliarNoFit,5,TRUE,2,2,FALSE,FALSE
4,4,ndege,S96,context,In het ndege mag je tijdens het landen geen mobiel gebruiken.,2,7.40109502183,197,1,FamiliarFit,2,FALSE,2,,TRUE,TRUE
4,4,wivu,S56,retrieval,De man heeft last van wivu wanneer zijn vrouw met andere mannen praat.,6,2.53369497461,198,1,FamiliarFit,6,TRUE,3,3,TRUE,TRUE
4,4,shukuru,S65,retrieval,Waar heb je deze shukuru gekocht? Ik wil er ook graag een.,3,8.06789984235,199,2,UnfamiliarNoFit,4,TRUE,1,1,FALSE,FALSE
4,4,shukuru,S65,retrieval,"Mijn hartelijke shukuru, je hebt me zeer geholpen.",6,3.74221823481,200,3,FamiliarFit,6,TRUE,3,3,TRUE,TRUE
4,4,kioo,S30,retrieval,We kunnen pas douchen en afwassen wanneer er weer kioo is.,2,2.99217128192,201,2,FamiliarNoFit,5,TRUE,2,2,TRUE,FALSE
4,4,taa,S97,retrieval,Het mooie licht in de woonkamer komt van de taa.,6,2.5671051803,202,3,FamiliarFit,6,TRUE,3,3,TRUE,TRUE
4,4,mwandani,S3,retrieval,Ik onderneem veel samen met mijn mwandani en ik kan altijd op hem vertrouwen.,6,5.16742942571,203,3,FamiliarFit,6,TRUE,3,3,TRUE,TRUE
4,4,kanisa,S24,retrieval,De kanisa uit de moestuin van je moeder was super lekker!,3,4.28394083575,204,2,UnfamiliarNoFit,4,TRUE,1,1,FALSE,FALSE
4,4,funguo,S60,context,"Wat stom, hij heeft zijn funguo op het werk laten liggen.",5,4.63399577826,205,4,UnfamiliarFit,5,TRUE,2,2,FALSE,TRUE
4,4,mwandani,S3,retrieval,Ik draag een mwandani tegen de zon.,1,6.04251837266,206,4,FamiliarNoFit,6,TRUE,3,3,TRUE,FALSE
4,4,dhoruba,S76,retrieval,De dhoruba heeft veel schade veroorzaakt. Talloze bomen vielen om.,5,3.45881975001,207,3,FamiliarFit,5,TRUE,2,2,TRUE,TRUE
4,4,wivu,S56,retrieval,Bij jonge kinderen die een broertje of zusje krijgen ontstaat soms wivu omdat de baby veel aandacht krijgt.,5,5.56748080341,208,2,UnfamiliarFit,5,TRUE,2,2,FALSE,TRUE
4,4,jibini,S92,context,Hij was zo druk bezig met zijn opdracht dat hij niet niet in de gaten had dat de jibini voorbij liep.,3,6.65930095817,209,3,UnfamiliarNoFit,4,TRUE,1,1,FALSE,FALSE
4,4,farasi,S81,context,Wanneer het meisje binnenkomt hinnikt het farasi.,5,3.55885395557,210,4,FamiliarFit,5,TRUE,2,2,TRUE,TRUE
4,4,siri,S8,context,Het is geen siri dat zij een plastische ingreep heeft gehad.,6,4.05890846808,211,3,UnfamiliarFit,6,TRUE,3,3,FALSE,TRUE
4,4,mshangao,S77,context,"Het bezoek was onverwacht, maar ik vond het een fijne mshangao.",5,4.86744665333,212,4,FamiliarFit,5,TRUE,2,2,TRUE,TRUE
4,4,kichwa,S28,context,Ik stootte mijn kichwa.,4,3.9338964351,213,4,UnfamiliarFit,4,TRUE,1,1,FALSE,TRUE
4,4,chanjo,S71,retrieval,Jammer dat dit chanjo alleen donkere kleuren en trieste motieven heeft.,2,6.38425079418,214,2,FamiliarNoFit,5,TRUE,2,2,TRUE,FALSE
4,4,hewa,S75,retrieval,Mijn vriendin nam haar hewa mee op de fiets.,3,8.30130133712,215,2,UnfamiliarNoFit,4,TRUE,1,1,FALSE,FALSE
4,4,kanisa,S24,retrieval,Wanneer het meisje binnenkomt hinnikt het kanisa.,3,3.95896719734,216,3,FamiliarNoFit,4,TRUE,1,1,TRUE,FALSE
4,4,wimbo,S16,context,Zij kon geen wimbo meenemen. Het paste niet meer in haar tas.,2,5.85919570602,217,3,UnfamiliarNoFit,5,TRUE,2,2,FALSE,FALSE
4,4,bamba,S47,retrieval,Kijk eens naar haar bamba! Hoe kan zij zoveel eten?,5,7.99294721829,218,3,FamiliarFit,5,TRUE,2,2,TRUE,TRUE
4,4,barua,S93,context,Mijn barua kan erg goed vertellen.,2,5.81760529445,219,2,UnfamiliarNoFit,5,TRUE,2,2,FALSE,FALSE
4,4,adhama,S4,context,"Dat de koningin hem feliciteerde, vond hij een bijzondere adhama.",5,3.98399135346,220,3,FamiliarFit,5,TRUE,2,2,TRUE,TRUE
4,4,harufu,S101,context,De jager draagt een harufu op zijn rug.,1,3.83386861014,221,2,FamiliarNoFit,6,TRUE,3,3,TRUE,FALSE
4,4,basila,S72,context,De chauffeur van de basila stopt alleen als er iemand bij de halte staat.,5,4.94242230303,222,3,FamiliarFit,5,TRUE,2,2,TRUE,TRUE
4,4,saduku,S15,context,Zij bewaart haar liefdesbrieven in een saduku.,6,3.16717420174,223,3,UnfamiliarFit,6,TRUE,3,3,FALSE,TRUE
4,4,barafu,S37,retrieval,Let op dat je niet uitglijdt. Er ligt barafu op de fietspaden.,2,4.15065732658,224,3,UnfamiliarFit,2,FALSE,2,,FALSE,TRUE
4,4,mchuma,S43,context,Het is verboden om zomaar een mchuma te kopen.,5,4.63401519748,225,2,UnfamiliarFit,5,TRUE,2,2,FALSE,TRUE
4,4,askari,S61,context,Ik ben na de diefstal van mijn handtas meteen naar de askari gegaan.,5,4.35895837547,226,4,FamiliarFit,5,TRUE,2,2,TRUE,TRUE
4,4,anga,S59,context,"De anga is vol met sterren, mooi!",6,5.25077947345,227,2,FamiliarFit,6,TRUE,3,3,TRUE,TRUE
4,4,pamba,S98,context,Ze breit een sjaal van fijne pamba.,5,4.67576845304,228,3,FamiliarFit,5,TRUE,2,2,TRUE,TRUE
4,4,sauti,S6,retrieval,Hij is schor en heeft last van zijn sauti.,6,2.82539711603,229,3,FamiliarFit,6,TRUE,3,3,TRUE,TRUE
4,4,wakati,S62,context,Hij komt s'ochtends altijd te laat. Misschien moeten we hem een wakati cadeau geven.,6,3.45890380747,230,2,UnfamiliarFit,6,TRUE,3,3,FALSE,TRUE
4,4,maji,S49,context,We kunnen pas douchen en afwassen wanneer er weer maji is.,3,6.27591154492,231,3,FamiliarFit,3,FALSE,1,,TRUE,TRUE
4,4,tumaini,S12,context,Hun tumaini is dat de nieuwe regering de bezuinigingen terugdraait.,3,8.61793858368,232,4,UnfamiliarFit,3,FALSE,1,,FALSE,TRUE
4,4,keza,S14,context,Na een lange dag op school was het keza moe.,2,3.4172351642,233,2,UnfamiliarNoFit,5,TRUE,2,2,FALSE,FALSE
4,4,adhama,S4,context,In de speeltuin staat een adhama.,1,3.26719842028,234,4,UnfamiliarNoFit,6,TRUE,3,3,FALSE,FALSE
4,4,chikiru,S45,retrieval,Een chikiru is onmisbaar als je iets wilt bereiken in je leven.,1,4.90066571845,235,3,UnfamiliarNoFit,6,TRUE,3,3,FALSE,FALSE
4,4,lugha,S36,retrieval,Hij beheerst de lugha goed.,6,1.99194296743,236,3,UnfamiliarFit,6,TRUE,3,3,FALSE,TRUE
4,4,kidonda,S39,context,Zij zorgt dat de kidonda goed schoon is om ontstekingen te voorkomen.,5,5.59256183009,237,3,UnfamiliarFit,5,TRUE,2,2,FALSE,TRUE
4,4,kijana,S29,retrieval,Het is een vervelende kijana.,2,3.58385786022,238,2,UnfamiliarFit,2,FALSE,2,,FALSE,TRUE
4,4,dunia,S79,retrieval,Dit is de dunia van het meisje. Ik denk dat zij de moeder is van haar moeder.,1,6.51769825702,239,3,FamiliarNoFit,6,TRUE,3,3,TRUE,FALSE
4,4,mkono,S48,retrieval,Zijn mkono zit in het gips.,5,4.21727494586,240,3,UnfamiliarFit,5,TRUE,2,2,FALSE,TRUE
4,4,wakati,S62,context,Ik ben op zoek naar de wakati om deze deur op slot te zetten.,2,3.59216123941,241,3,FamiliarNoFit,5,TRUE,2,2,TRUE,FALSE
4,4,harufu,S101,context,Wat een lekkere harufu. Wat ben jij aan het bakken?,5,2.41709728778,242,3,FamiliarFit,5,TRUE,2,2,TRUE,TRUE
4,4,kofia,S33,retrieval,Ik draag een kofia tegen de zon.,6,2.80037157282,243,3,FamiliarFit,6,TRUE,3,3,TRUE,TRUE
4,4,duka,S78,retrieval,De verdoving hielp tegen de duka.,1,2.70046636634,244,2,FamiliarNoFit,6,TRUE,3,3,TRUE,FALSE
4,4,kaputula,S74,context,Gouda is lekkere kaputula.,1,1.71696188036,245,3,FamiliarNoFit,6,TRUE,3,3,TRUE,FALSE
4,4,baridi,S94,context,Bij de benzinepomp kochten wij een baridi.,2,4.64243703389,246,3,UnfamiliarNoFit,5,TRUE,2,2,FALSE,FALSE
4,4,tabibu,S10,retrieval,Hongarije kun je vinden op de tabibu.,4,4.63409509368,247,2,FamiliarNoFit,3,FALSE,1,,TRUE,FALSE
4,4,chunga,S73,context,We doen de pasta in een chunga.,5,4.85077941796,248,4,FamiliarFit,5,TRUE,2,2,TRUE,TRUE
4,4,keja,S27,context,"Als er golven zijn, kun je hier prima op de keja surfen.",1,4.00898860009,249,2,FamiliarNoFit,6,TRUE,3,3,TRUE,FALSE
4,4,nyanya,S51,retrieval,De nyanya maakt veel herrie.,1,2.09200519214,250,2,UnfamiliarNoFit,6,TRUE,3,3,FALSE,FALSE
4,4,godoro,S87,retrieval,"De godoro in het hotel was niet fijn, ik heb slecht geslapen.",6,2.77548945439,251,4,FamiliarFit,6,TRUE,3,3,TRUE,TRUE
4,4,kaputula,S74,context,"Kijk, hij draagt groene sokken onder de kaputula.",5,3.05051853467,252,4,FamiliarFit,5,TRUE,2,2,TRUE,TRUE
4,4,mchoro,S95,retrieval,Jammer dat dit mchoro alleen donkere kleuren en trieste motieven heeft.,5,5.23411140582,253,3,FamiliarFit,5,TRUE,2,2,TRUE,TRUE
4,4,fumbo,S84,context,"Kijk, hij draagt groene sokken onder de fumbo.",1,2.39199850638,254,3,FamiliarNoFit,6,TRUE,3,3,TRUE,FALSE
4,4,ufu,S34,context,Veel mensen zijn bang voor de ufu.,5,3.65052097595,255,2,UnfamiliarFit,5,TRUE,2,2,FALSE,TRUE
4,4,kamba,S23,context,Het kamba hield een leuke toespraak.,2,5.52587874031,256,2,UnfamiliarNoFit,5,TRUE,2,2,FALSE,FALSE
4,4,kijana,S29,retrieval,Onze buren hebben een nieuwe kast om hun kijana op te ruimen.,2,3.20869664605,257,3,UnfamiliarNoFit,5,TRUE,2,2,FALSE,FALSE
4,4,jioni,S20,retrieval,Hij stopt de jioni in de brievenbus.,1,2.9922747586,258,3,FamiliarNoFit,6,TRUE,3,3,TRUE,FALSE
4,4,keja,S27,context,Het dak lag bezaaid met keja.,3,4.94238069042,259,3,UnfamiliarNoFit,4,TRUE,1,1,FALSE,FALSE
4,4,kiti,S32,context,"Hij pakt even een kiti voor je, dan kun je ook zitten.",3,3.87563989783,260,4,FamiliarFit,3,FALSE,1,,TRUE,TRUE
4,4,baskeli,S55,context,De baskeli is een populair vervoersmiddel in Nederland.,6,2.725445026,261,4,UnfamiliarFit,6,TRUE,3,3,FALSE,TRUE
4,4,nyanya,S51,retrieval,Zondag ochtend gaan wij met de hele familie naar de nyanya.,1,3.26720563312,262,3,FamiliarNoFit,6,TRUE,3,3,TRUE,FALSE
4,4,moto,S21,retrieval,Ze hebben hout opgestapeld voor een moto.,5,2.93382375175,263,4,FamiliarFit,5,TRUE,2,2,TRUE,TRUE
4,4,keza,S14,context,Mijn keza bevat veel verschillende arbeidstaken.,6,1.83351906426,264,3,FamiliarFit,6,TRUE,3,3,TRUE,TRUE
4,4,upinde,S99,retrieval,Het is koud buiten. Denk aan je upinde.,1,3.01718073492,265,3,FamiliarNoFit,6,TRUE,3,3,TRUE,FALSE
4,4,lango,S7,context,De schilder heeft gisteren de lango geschilderd.,6,2.69202372363,266,3,UnfamiliarFit,6,TRUE,3,3,FALSE,TRUE
4,4,memo,S50,retrieval,Het kind kan nu praten. Het leert elke dag een nieuw memo.,6,3.91724501252,267,3,UnfamiliarFit,6,TRUE,3,3,FALSE,TRUE
4,4,wazo,S107,retrieval,Het wazo voor zijn nieuwe boek kreeg hij tijdens het reizen.,6,3.93389726735,268,4,UnfamiliarFit,6,TRUE,3,3,FALSE,TRUE
4,4,wingu,S17,retrieval,In de prachtige blauwe hemel is geen wingu te zien.,6,3.14219249048,269,3,FamiliarFit,6,TRUE,3,3,TRUE,TRUE
4,4,odare,S1,context,"Nee, in de vakantie gaan de kinderen niet naar hun odare.",6,4.38405687944,270,4,FamiliarFit,6,TRUE,3,3,TRUE,TRUE
4,4,maumiva,S40,context,Zijn kleine zusje is verliefd op haar maumiva.,1,5.37578346132,271,3,UnfamiliarNoFit,6,TRUE,3,3,FALSE,FALSE
4,4,harufu,S101,context,In de stal lag veel harufu.,1,3.7588649413,272,4,UnfamiliarNoFit,6,TRUE,3,3,FALSE,FALSE
4,4,tabibu,S10,retrieval,In het vliegtuig bevindt zich een tabibu.,1,4.05055293442,273,3,UnfamiliarFit,1,FALSE,3,,FALSE,TRUE
4,4,maji,S49,context,De maji speelt graag met auto's.,1,2.42533686097,274,4,FamiliarNoFit,6,TRUE,3,3,TRUE,FALSE
4,4,mkate,S25,context,Tijdens een astmaaanval gaat het ademen heel zwaar. Men krijgt daardoor minder mkate naar binnen.,1,3.5505797052,275,3,FamiliarNoFit,6,TRUE,3,3,TRUE,FALSE
4,4,kanisa,S24,retrieval,De kanisa is een groot en indrukwekkend gebouw.,5,3.85055609698,276,4,UnfamiliarFit,5,TRUE,2,2,FALSE,TRUE
4,4,zamani,S54,context,Ouderen zijn vaak meer geinteresseerd in het zamani dan jongeren.,5,4.87570203932,277,3,UnfamiliarFit,5,TRUE,2,2,FALSE,TRUE
4,4,ndege,S96,context,In haar ndege zitten zakken.,1,3.54226689382,278,2,UnfamiliarNoFit,6,TRUE,3,3,FALSE,FALSE
4,4,koti,S91,retrieval,Er zit een vlek op zijn koti.,5,6.05931016843,279,4,UnfamiliarFit,5,TRUE,2,2,FALSE,TRUE
4,4,bustani,S68,retrieval,Wie geeft de bloemen in de bustani water terwijl wij op vakantie zijn?,6,2.23371858283,280,3,FamiliarFit,6,TRUE,3,3,TRUE,TRUE
4,4,tabibu,S10,retrieval,Hij stopte zijn geld in zijn tabibu.,2,6.82609149169,281,4,UnfamiliarNoFit,5,TRUE,2,2,FALSE,FALSE
4,4,bibi,S67,context,Mijn bibi staat in de keuken en maakt lekkere koekjes.,5,2.81714949772,282,3,UnfamiliarFit,5,TRUE,2,2,FALSE,TRUE
4,4,tumbili,S13,context,In de dierentuin kijken we naar een tumbili.,6,2.86715619735,283,3,UnfamiliarFit,6,TRUE,3,3,FALSE,TRUE
4,4,kumbukumbu,S18,retrieval,Na haar hersenbloeding heeft zij problemen met haar kumbukumbu.,5,3.4505832284,284,3,UnfamiliarFit,5,TRUE,2,2,FALSE,TRUE
4,4,anga,S59,context,Een anga kun je in verschillende maten kopen. Die voor kinderen zijn meestal kleiner dan die voor volwassenen.,1,4.5589871159,285,3,UnfamiliarNoFit,6,TRUE,3,3,FALSE,FALSE
4,4,keza,S14,context,We kunnen even niet bellen omdat mijn keza nog niet gerepareerd is.,1,2.95874193444,286,4,FamiliarNoFit,6,TRUE,3,3,TRUE,FALSE
4,4,panya,S53,retrieval,De panya piept.,6,4.73411598321,287,3,UnfamiliarFit,6,TRUE,3,3,FALSE,TRUE
4,4,mkate,S25,context,Ik ga even naar de bakker om mkate te halen.,4,3.54216258488,288,4,FamiliarFit,4,TRUE,1,1,TRUE,TRUE
4,4,samaki,S5,retrieval,In het samaki mag je tijdens het landen geen mobiel gebruiken.,1,3.92556143033,289,3,FamiliarNoFit,6,TRUE,3,3,TRUE,FALSE
4,4,simu,S100,retrieval,Mijn nichtje is gisteren achtervolgd door een simu.,1,2.28373637916,290,3,UnfamiliarNoFit,6,TRUE,3,3,FALSE,FALSE
4,4,kamba,S23,context,Wat een uitbarsting van kamba! Kijk hoe ze met haar voet stampt en gilt.,3,5.98429512547,291,3,FamiliarNoFit,4,TRUE,1,1,TRUE,FALSE
4,4,meza,S44,context,Onze meza is van steigerhout.,5,3.63394306897,292,2,UnfamiliarFit,5,TRUE,2,2,FALSE,TRUE
4,4,mbwa,S42,retrieval,De mbwa kan niet tegen warmte. Dan krimpt hij.,2,5.30919940954,293,2,UnfamiliarNoFit,5,TRUE,2,2,FALSE,FALSE
4,4,skati,S9,context,Ik ben na de diefstal van mijn handtas meteen naar de skati gegaan.,2,3.02550075915,294,3,FamiliarNoFit,5,TRUE,2,2,TRUE,FALSE
4,4,basila,S72,context,In de basila is de kans op kou en sneeuw groter.,2,10.9683907879,295,4,FamiliarNoFit,5,TRUE,2,2,TRUE,FALSE
4,4,hewa,S75,retrieval,Door de industrie is de hewa vervuild.,2,5.1591720978,296,3,UnfamiliarFit,2,FALSE,2,,FALSE,TRUE
4,4,panya,S53,retrieval,We vinden het gezellig om samen met veel vrienden te eten. Gelukkig is onze panya hiervoor nu groot genoeg.,1,3.90896632347,297,4,FamiliarNoFit,6,TRUE,3,3,TRUE,FALSE
4,4,kijana,S29,retrieval,In deze kijana koop ik graag mijn zomerkleding.,1,2.80046922373,298,4,FamiliarNoFit,6,TRUE,3,3,TRUE,FALSE
4,4,pombe,S31,retrieval,Bij de brouwerij maken ze pombe.,6,1.91693596958,299,3,FamiliarFit,6,TRUE,3,3,TRUE,TRUE
4,4,barafu,S37,retrieval,"Wanneer het regent en de zon schijnt, zoek ik altijd naar een barafu.",4,10.7266606689,300,4,FamiliarNoFit,3,FALSE,1,,TRUE,FALSE
4,4,rangi,S2,context,Deze muur werd gisteren geverfd.Wat vind je van de rangi?,6,2.45041483606,301,2,FamiliarFit,6,TRUE,3,3,TRUE,TRUE
4,4,chanjo,S71,retrieval,Hij neemte een stuk chanjo als tussendoortje.,1,3.59217871671,302,3,UnfamiliarNoFit,6,TRUE,3,3,FALSE,FALSE
4,4,maumiva,S40,context,De verdoving hielp tegen de maumiva.,6,1.95033258181,303,4,FamiliarFit,6,TRUE,3,3,TRUE,TRUE
4,4,mchuma,S43,context,Mijn mchuma past niet in deze kleine schoen.,2,3.59234599938,304,3,FamiliarNoFit,5,TRUE,2,2,TRUE,FALSE
4,4,mit,S82,retrieval,Wil jij even de mit uit de kast pakken?,2,1.86693121187,305,3,UnfamiliarNoFit,5,TRUE,2,2,FALSE,FALSE
4,4,pombe,S31,retrieval,"De pombe is vol met sterren, mooi!",2,1.46684460216,306,4,FamiliarNoFit,5,TRUE,2,2,TRUE,FALSE
4,4,bibi,S67,context,Wie geeft de bloemen in de bibi water terwijl wij op vakantie zijn?,1,4.56732517227,307,4,FamiliarNoFit,6,TRUE,3,3,TRUE,FALSE
4,4,mbwa,S42,retrieval,In het park zag ik een mooie mwba.,4,3.72561064417,308,3,UnfamiliarFit,4,TRUE,1,1,FALSE,TRUE
4,4,ajabu,S58,retrieval,Het is een ajabu dat zij de ramp overleefd hebben.,3,4.72577903651,309,3,UnfamiliarFit,3,FALSE,1,,FALSE,TRUE
4,4,sauti,S6,retrieval,"Het bezoek was onverwacht, maar ik vond het een fijne sauti.",2,2.61703337081,310,4,FamiliarNoFit,5,TRUE,2,2,TRUE,FALSE
4,4,skati,S9,context,Ik draag in de zomer liever een skati dan een broek.,5,5.08417286764,311,4,UnfamiliarFit,5,TRUE,2,2,FALSE,TRUE
4,4,hewa,S75,retrieval,Ze breit een sjaal van fijne hewa.,2,2.11704543847,312,4,FamiliarNoFit,5,TRUE,2,2,TRUE,FALSE
4,4,simu,S100,retrieval,We kunnen even niet bellen omdat mijn simu nog niet gerepareerd is.,6,2.33366567934,313,4,FamiliarFit,6,TRUE,3,3,TRUE,TRUE
4,4,tumbili,S13,context,Mijn tumbili houdt erg van winkelen.,2,2.66709860551,314,4,UnfamiliarNoFit,5,TRUE,2,2,FALSE,FALSE
4,4,meza,S44,context,De meza zingt mooi.,2,3.85060603211,315,3,UnfamiliarNoFit,5,TRUE,2,2,FALSE,FALSE
4,4,ndege,S96,context,"Dat de koningin hem feliciteerde, vond hij een bijzondere ndege.",2,4.05057263106,316,3,FamiliarNoFit,5,TRUE,2,2,TRUE,FALSE
4,4,baba,S104,context,Hij en zijn broer hebben hun baba verloren.,6,2.20038882818,317,3,FamiliarFit,6,TRUE,3,3,TRUE,TRUE
4,4,ramani,S108,context,Wij hebben in de auto altijd een ramani liggen voor het geval dat het navigatie apparaat niet werkt.,4,6.34269006627,318,4,UnfamiliarFit,4,TRUE,1,1,FALSE,TRUE
4,4,goti,S88,retrieval,Ik ben aan mijn goti geopereerd.,5,4.00891758124,319,4,FamiliarFit,5,TRUE,2,2,TRUE,TRUE
4,4,duka,S78,retrieval,Wij gaan met de fiets naar de duka.,6,2.65870173666,320,3,UnfamiliarFit,6,TRUE,3,3,FALSE,TRUE
4,4,degaga,S64,context,Tijdens de uitverkoop heb ik deze nieuwe degaga gekocht.,5,2.82537409038,321,4,UnfamiliarFit,5,TRUE,2,2,FALSE,TRUE
4,4,fumbo,S84,context,In de kerstvakantie maken wij een fumbo.,5,3.43381861953,322,4,UnfamiliarFit,5,TRUE,2,2,FALSE,TRUE
4,4,wimbo,S16,context,We zingen enthousiast mee met het wimbo.,6,3.29220537652,323,4,FamiliarFit,6,TRUE,3,3,TRUE,TRUE
4,4,ukumbi,S109,retrieval,"Een kilt is een kledingstuk uit Schotland, een soort ukumbi voor mannen.",2,3.24220838649,324,3,FamiliarNoFit,5,TRUE,2,2,TRUE,FALSE
4,4,rangi,S2,context,Geef de rangi niet op! Ik weet dat je het kunt!,2,2.62549293598,325,3,FamiliarNoFit,5,TRUE,2,2,TRUE,FALSE
4,4,taa,S97,retrieval,Deze taa is haar favoriete kledingstuk.,2,2.45040512645,326,4,UnfamiliarNoFit,5,TRUE,2,2,FALSE,FALSE
4,4,dhoruba,S76,retrieval,De dhoruba zit op zijn troon.,2,2.59203085325,327,4,FamiliarNoFit,5,TRUE,2,2,TRUE,FALSE
4,4,mguu,S46,retrieval,Mijn mguu past niet in deze kleine schoen.,2,4.60075812618,328,4,FamiliarFit,2,FALSE,2,,TRUE,TRUE
4,4,bahari,S63,retrieval,Er zijn weer vluchtelingen gered op de bahari.,5,2.95039749747,329,4,UnfamiliarFit,5,TRUE,2,2,FALSE,TRUE
4,4,hasira,S57,context,Wat een uitbarsting van hasira! Kijk hoe ze met haar voet stampt en gilt.,3,3.34222289542,330,2,FamiliarFit,3,FALSE,1,,TRUE,TRUE
4,4,siri,S8,context,Naast het siri zijn er nog andere dieren.,1,3.65884987753,331,4,UnfamiliarNoFit,6,TRUE,3,3,FALSE,FALSE
4,4,wivu,S56,retrieval,Bij de deur hangt een wivu.,1,1.94201089307,332,3,UnfamiliarNoFit,6,TRUE,3,3,FALSE,FALSE
4,4,jibini,S92,context,Ik hou van jibini op mijn boterham.,1,2.4503180174,333,4,UnfamiliarFit,1,FALSE,3,,FALSE,TRUE
4,4,paka,S52,retrieval,Ze heeft de houten blokken met een paka verbonden.,1,3.51716838985,334,3,FamiliarNoFit,6,TRUE,3,3,TRUE,FALSE
4,4,uchafu,S19,retrieval,De uchafu snort.,2,3.85889387593,335,3,FamiliarNoFit,5,TRUE,2,2,TRUE,FALSE
4,4,kioo,S30,retrieval,Hij had moeite om rustig te blijven tijdens de kioo.,2,2.75047140146,336,3,UnfamiliarNoFit,5,TRUE,2,2,FALSE,FALSE
4,4,hasira,S57,context,"Toen hij terugkwam van zijn reis, had hij een hasira bij zich.",4,4.12558684176,337,3,UnfamiliarNoFit,3,FALSE,1,,FALSE,FALSE
4,4,barua,S93,context,De barua heeft veel schade veroorzaakt. Talloze bomen vielen om.,2,3.5171836478,338,3,FamiliarNoFit,5,TRUE,2,2,TRUE,FALSE
4,4,uchafu,S19,retrieval,"Het is hier vies en smerig, er moet eindelijk iemand het uchafu opruimen!",5,14.2271349139,339,4,FamiliarFit,5,TRUE,2,2,TRUE,TRUE
4,4,maziwa,S41,retrieval,Ik doe wat maziwa in mijn koffie. Ik hou niet van zwarte koffie.,6,4.66732664258,340,3,FamiliarFit,6,TRUE,3,3,TRUE,TRUE
4,4,fasihi,S70,context,Ik kan niet wachten totdat de fasihi gegroeid is en appels draagt.,2,6.40101124178,341,3,FamiliarNoFit,5,TRUE,2,2,TRUE,FALSE
4,4,mchoro,S95,retrieval,Hij riep het mchoro na.,1,4.00898388399,342,4,UnfamiliarNoFit,6,TRUE,3,3,FALSE,FALSE
4,4,chanjo,S71,retrieval,In de hobbykist zit een scherpe chanjo.,5,3.94230745223,343,4,UnfamiliarFit,5,TRUE,2,2,FALSE,TRUE
4,4,fasihi,S70,context,Iedere woensdagmiddag gaat zij naar de bibliotheek en leent zij een nieuw fasihi.,6,3.24220505749,344,4,FamiliarFit,6,TRUE,3,3,TRUE,TRUE
4,4,ukumbi,S109,retrieval,Het ukumbi is midden in de stad. Je kunt het niet missen.,5,3.19218615149,345,4,UnfamiliarFit,5,TRUE,2,2,FALSE,TRUE
4,4,ufu,S34,context,Kijk eens naar haar ufu! Hoe kan zij zoveel eten?,2,3.76728289386,346,3,FamiliarNoFit,5,TRUE,2,2,TRUE,FALSE
4,4,bamba,S47,retrieval,Wat een goed bamba om dit te gaan doen.,1,3.29221813771,347,4,FamiliarNoFit,6,TRUE,3,3,TRUE,FALSE
4,4,duka,S78,retrieval,Helemaal onder op de stapel met troep lag de duka.,1,2.55874076929,348,4,UnfamiliarNoFit,6,TRUE,3,3,FALSE,FALSE
4,4,swali,S22,retrieval,De uitleg was duidelijk. Daardoor had niemand een swali.,4,5.48420482612,349,4,FamiliarFit,4,TRUE,1,1,TRUE,TRUE
4,4,baridi,S94,context,In de baridi is de kans op kou en sneeuw groter.,5,3.55892580666,350,4,FamiliarFit,5,TRUE,2,2,TRUE,TRUE
4,4,mchezo,S89,context,Dit mchezo is behoorlijk saai.,4,2.62546463941,351,4,UnfamiliarFit,4,TRUE,1,1,FALSE,TRUE
4,4,kidonda,S39,context,Mijn kidonda werd door iedereen met enthousiasme ontvangen.,2,3.76728178419,352,4,UnfamiliarNoFit,5,TRUE,2,2,FALSE,FALSE
4,4,kitanda,S26,retrieval,Ze is moe en wil graag naar kitanda.,5,2.5505206153,353,3,FamiliarFit,5,TRUE,2,2,TRUE,TRUE
4,4,kofia,S33,retrieval,Ik word iedere dag wakker door het ratelen van mijn kofia.,2,4.26735627076,354,4,FamiliarNoFit,5,TRUE,2,2,TRUE,FALSE
